Conflict,Stimulus_Side,ITI,Previous_Response,Previous_RT,Cue_Response,Cue_Response_RT,Response,RT,Trial_Time_Onset,Trial_Time_End,Trial_Order,Duration,Participant,Task
True,RIGHT,700.0000014,,,,,RIGHT,581.3595000000191,2019-11-12 16:11:03.664566,2019-11-12 16:11:04.454511,1,4.883102066666667,P2,Conflict_Resolution
False,RIGHT,883.3333351,,,,,RIGHT,341.4062999999601,2019-11-12 16:11:05.356504,2019-11-12 16:11:05.905363,2,4.883102066666667,P2,Conflict_Resolution
True,LEFT,1466.6666696,,,,,LEFT,392.1096999999918,2019-11-12 16:11:07.392495,2019-11-12 16:11:07.990692,3,4.883102066666667,P2,Conflict_Resolution
True,RIGHT,550.0000011,,,,,RIGHT,503.88599999996586,2019-11-12 16:11:08.560163,2019-11-12 16:11:09.270994,4,4.883102066666667,P2,Conflict_Resolution
True,RIGHT,1433.3333362,,,,,LEFT,357.50450000000455,2019-11-12 16:11:10.724194,2019-11-12 16:11:11.289188,5,4.883102066666667,P2,Conflict_Resolution
True,RIGHT,1316.6666693,,,,,RIGHT,470.46440000002576,2019-11-12 16:11:12.623237,2019-11-12 16:11:13.299811,6,4.883102066666667,P2,Conflict_Resolution
True,RIGHT,833.333335,,,,,RIGHT,428.07279999999537,2019-11-12 16:11:14.149079,2019-11-12 16:11:14.785414,7,4.883102066666667,P2,Conflict_Resolution
True,LEFT,1216.6666691,,,,,RIGHT,350.2379999999903,2019-11-12 16:11:16.018209,2019-11-12 16:11:16.576275,8,4.883102066666667,P2,Conflict_Resolution
True,RIGHT,650.0000013,,,,,RIGHT,498.35549999994555,2019-11-12 16:11:17.244600,2019-11-12 16:11:17.950534,9,4.883102066666667,P2,Conflict_Resolution
False,RIGHT,1050.0000021,,,,,RIGHT,334.04839999997193,2019-11-12 16:11:19.021762,2019-11-12 16:11:19.564038,10,4.883102066666667,P2,Conflict_Resolution
True,LEFT,1266.6666692000001,,,,,LEFT,397.8706999999986,2019-11-12 16:11:20.849734,2019-11-12 16:11:21.454945,11,4.883102066666667,P2,Conflict_Resolution
False,RIGHT,1433.3333362,,,,,RIGHT,391.1669999999958,2019-11-12 16:11:22.906911,2019-11-12 16:11:23.505151,12,4.883102066666667,P2,Conflict_Resolution
True,LEFT,783.3333349000001,,,,,LEFT,404.8669000000018,2019-11-12 16:11:24.304666,2019-11-12 16:11:24.917417,13,4.883102066666667,P2,Conflict_Resolution
True,LEFT,816.6666683,,,,,LEFT,446.0136999999804,2019-11-12 16:11:25.749214,2019-11-12 16:11:26.403189,14,4.883102066666667,P2,Conflict_Resolution
False,RIGHT,1333.3333360000001,,,,,RIGHT,373.3533000000193,2019-11-12 16:11:27.753331,2019-11-12 16:11:28.333316,15,4.883102066666667,P2,Conflict_Resolution
False,RIGHT,650.0000013,,,,,RIGHT,387.6845000000344,2019-11-12 16:11:28.999489,2019-11-12 16:11:29.593971,16,4.883102066666667,P2,Conflict_Resolution
False,RIGHT,1416.6666695000001,,,,,RIGHT,372.04959999996845,2019-11-12 16:11:31.026427,2019-11-12 16:11:31.606200,17,4.883102066666667,P2,Conflict_Resolution
False,LEFT,783.3333349000001,,,,,LEFT,380.1162999999974,2019-11-12 16:11:32.407335,2019-11-12 16:11:32.994762,18,4.883102066666667,P2,Conflict_Resolution
True,RIGHT,1483.3333363,,,,,RIGHT,450.64389999998866,2019-11-12 16:11:34.496982,2019-11-12 16:11:35.154668,19,4.883102066666667,P2,Conflict_Resolution
True,RIGHT,1050.0000021,,,,,RIGHT,379.67959999997447,2019-11-12 16:11:36.223367,2019-11-12 16:11:36.812455,20,4.883102066666667,P2,Conflict_Resolution
True,RIGHT,850.0000017,,,,,RIGHT,357.5445999999829,2019-11-12 16:11:37.684686,2019-11-12 16:11:38.249209,21,4.883102066666667,P2,Conflict_Resolution
False,RIGHT,583.3333345,,,,,RIGHT,487.23549999999705,2019-11-12 16:11:38.848650,2019-11-12 16:11:39.542249,22,4.883102066666667,P2,Conflict_Resolution
True,LEFT,950.0000019,,,,,LEFT,435.245000000009,2019-11-12 16:11:40.509715,2019-11-12 16:11:41.152536,23,4.883102066666667,P2,Conflict_Resolution
True,LEFT,733.3333348,,,,,LEFT,412.8191000000925,2019-11-12 16:11:41.907141,2019-11-12 16:11:42.526902,24,4.883102066666667,P2,Conflict_Resolution
False,RIGHT,900.0000018000001,,,,,RIGHT,381.90530000008494,2019-11-12 16:11:43.442934,2019-11-12 16:11:44.032495,25,4.883102066666667,P2,Conflict_Resolution
True,RIGHT,783.3333349000001,,,,,LEFT,374.57290000008925,2019-11-12 16:11:44.838492,2019-11-12 16:11:45.420050,26,4.883102066666667,P2,Conflict_Resolution
False,LEFT,1350.0000027,,,,,LEFT,342.16719999994893,2019-11-12 16:11:46.786281,2019-11-12 16:11:47.336118,27,4.883102066666667,P2,Conflict_Resolution
False,RIGHT,1483.3333363,,,,,RIGHT,327.38110000002507,2019-11-12 16:11:48.838438,2019-11-12 16:11:49.372666,28,4.883102066666667,P2,Conflict_Resolution
True,LEFT,916.6666685,,,,,LEFT,482.3105000000396,2019-11-12 16:11:50.308924,2019-11-12 16:11:50.997734,29,4.883102066666667,P2,Conflict_Resolution
False,LEFT,1116.6666689,,,,,LEFT,379.9263000000792,2019-11-12 16:11:52.130724,2019-11-12 16:11:52.718204,30,4.883102066666667,P2,Conflict_Resolution
True,LEFT,1000.000002,,,,,RIGHT,401.14440000002105,2019-11-12 16:11:53.738551,2019-11-12 16:11:54.345892,31,4.883102066666667,P2,Conflict_Resolution
True,LEFT,666.6666680000001,,,,,LEFT,427.30619999997543,2019-11-12 16:11:55.032483,2019-11-12 16:11:55.666810,32,4.883102066666667,P2,Conflict_Resolution
False,RIGHT,1466.6666696,,,,,RIGHT,398.89080000000376,2019-11-12 16:11:57.153405,2019-11-12 16:11:57.759341,33,4.883102066666667,P2,Conflict_Resolution
True,RIGHT,1366.6666694,,,,,LEFT,330.93080000003283,2019-11-12 16:11:59.141158,2019-11-12 16:11:59.679677,34,4.883102066666667,P2,Conflict_Resolution
True,LEFT,1450.0000029,,,,,LEFT,644.7922999999491,2019-11-12 16:12:01.147922,2019-11-12 16:12:02.000282,35,4.883102066666667,P2,Conflict_Resolution
False,RIGHT,1100.0000022,,,,,RIGHT,416.17970000004334,2019-11-12 16:12:03.119846,2019-11-12 16:12:03.744199,36,4.883102066666667,P2,Conflict_Resolution
False,RIGHT,783.3333349000001,,,,,RIGHT,346.85509999997066,2019-11-12 16:12:04.545084,2019-11-12 16:12:05.100205,37,4.883102066666667,P2,Conflict_Resolution
False,LEFT,1450.0000029,,,,,LEFT,369.23400000000584,2019-11-12 16:12:06.569202,2019-11-12 16:12:07.146600,38,4.883102066666667,P2,Conflict_Resolution
False,LEFT,1216.6666691,,,,,LEFT,358.5942999999361,2019-11-12 16:12:08.379122,2019-11-12 16:12:08.945125,39,4.883102066666667,P2,Conflict_Resolution
False,RIGHT,833.333335,,,,,RIGHT,427.9748000000154,2019-11-12 16:12:09.798348,2019-11-12 16:12:10.434363,40,4.883102066666667,P2,Conflict_Resolution
False,RIGHT,800.0000016,,,,,RIGHT,327.2343999999521,2019-11-12 16:12:11.250363,2019-11-12 16:12:11.783963,41,4.883102066666667,P2,Conflict_Resolution
False,RIGHT,1283.3333359,,,,,RIGHT,361.58209999996416,2019-11-12 16:12:13.087385,2019-11-12 16:12:13.656374,42,4.883102066666667,P2,Conflict_Resolution
True,RIGHT,1150.0000023,,,,,LEFT,403.8265000000365,2019-11-12 16:12:14.823345,2019-11-12 16:12:15.433711,43,4.883102066666667,P2,Conflict_Resolution
False,RIGHT,950.0000019,,,,,RIGHT,484.81409999999414,2019-11-12 16:12:16.398690,2019-11-12 16:12:17.091470,44,4.883102066666667,P2,Conflict_Resolution
False,LEFT,850.0000017,,,,,LEFT,514.6449999999732,2019-11-12 16:12:17.959715,2019-11-12 16:12:18.681134,45,4.883102066666667,P2,Conflict_Resolution
False,LEFT,950.0000019,,,,,LEFT,364.7392000000309,2019-11-12 16:12:19.646310,2019-11-12 16:12:20.218354,46,4.883102066666667,P2,Conflict_Resolution
True,RIGHT,1033.3333354000001,,,,,RIGHT,405.7194999999183,2019-11-12 16:12:21.268426,2019-11-12 16:12:21.882329,47,4.883102066666667,P2,Conflict_Resolution
True,LEFT,866.6666684,,,,,LEFT,443.03899999999885,2019-11-12 16:12:22.765170,2019-11-12 16:12:23.414723,48,4.883102066666667,P2,Conflict_Resolution
False,RIGHT,700.0000014,,,,,RIGHT,360.82870000007006,2019-11-12 16:12:24.134871,2019-11-12 16:12:24.701833,49,4.883102066666667,P2,Conflict_Resolution
False,RIGHT,633.3333346000001,,,,,RIGHT,350.3269000000273,2019-11-12 16:12:25.353597,2019-11-12 16:12:25.911122,50,4.883102066666667,P2,Conflict_Resolution
True,LEFT,1016.6666687000001,,,,,RIGHT,366.1409999999705,2019-11-12 16:12:26.945389,2019-11-12 16:12:27.520374,51,4.883102066666667,P2,Conflict_Resolution
True,LEFT,716.6666681,,,,,LEFT,797.7714999999534,2019-11-12 16:12:28.260007,2019-11-12 16:12:29.264968,52,4.883102066666667,P2,Conflict_Resolution
True,RIGHT,1266.6666692000001,,,,,RIGHT,497.3827999999685,2019-11-12 16:12:30.549559,2019-11-12 16:12:31.254300,53,4.883102066666667,P2,Conflict_Resolution
True,RIGHT,600.0000012,,,,,RIGHT,489.2569999999523,2019-11-12 16:12:31.873669,2019-11-12 16:12:32.570346,54,4.883102066666667,P2,Conflict_Resolution
False,LEFT,1466.6666696,,,,,LEFT,359.5108000000664,2019-11-12 16:12:34.059454,2019-11-12 16:12:34.625937,55,4.883102066666667,P2,Conflict_Resolution
True,RIGHT,1000.000002,,,,,RIGHT,457.1657999999843,2019-11-12 16:12:35.645142,2019-11-12 16:12:36.308642,56,4.883102066666667,P2,Conflict_Resolution
False,LEFT,1200.0000024,,,,,LEFT,398.32410000008167,2019-11-12 16:12:37.525435,2019-11-12 16:12:38.130817,57,4.883102066666667,P2,Conflict_Resolution
False,RIGHT,1083.3333355,,,,,RIGHT,389.94019999995544,2019-11-12 16:12:39.232578,2019-11-12 16:12:39.831019,58,4.883102066666667,P2,Conflict_Resolution
False,LEFT,900.0000018000001,,,,,LEFT,382.65820000003714,2019-11-12 16:12:40.748128,2019-11-12 16:12:41.337697,59,4.883102066666667,P2,Conflict_Resolution
False,LEFT,866.6666684,,,,,LEFT,378.33790000001954,2019-11-12 16:12:42.221330,2019-11-12 16:12:42.806385,60,4.883102066666667,P2,Conflict_Resolution
True,RIGHT,683.3333347,,,,,RIGHT,478.2780000000457,2019-11-12 16:12:43.507526,2019-11-12 16:12:44.193252,61,4.883102066666667,P2,Conflict_Resolution
True,LEFT,1116.6666689,,,,,LEFT,444.295000000011,2019-11-12 16:12:45.326196,2019-11-12 16:12:45.977994,62,4.883102066666667,P2,Conflict_Resolution
False,RIGHT,500.000001,,,,,RIGHT,510.92559999995046,2019-11-12 16:12:46.497072,2019-11-12 16:12:47.215976,63,4.883102066666667,P2,Conflict_Resolution
True,RIGHT,500.000001,,,,,RIGHT,523.5020000000077,2019-11-12 16:12:47.736581,2019-11-12 16:12:48.468229,64,4.883102066666667,P2,Conflict_Resolution
False,RIGHT,1366.6666694,,,,,RIGHT,366.07790000005025,2019-11-12 16:12:49.852380,2019-11-12 16:12:50.426299,65,4.883102066666667,P2,Conflict_Resolution
False,LEFT,1316.6666693,,,,,LEFT,361.11589999995886,2019-11-12 16:12:51.761305,2019-11-12 16:12:52.329809,66,4.883102066666667,P2,Conflict_Resolution
False,LEFT,533.3333344,,,,,LEFT,379.8515999999381,2019-11-12 16:12:52.879251,2019-11-12 16:12:53.467369,67,4.883102066666667,P2,Conflict_Resolution
True,LEFT,533.3333344,,,,,LEFT,550.3598999999895,2019-11-12 16:12:54.016474,2019-11-12 16:12:54.774150,68,4.883102066666667,P2,Conflict_Resolution
True,RIGHT,733.3333348,,,,,RIGHT,474.57489999999325,2019-11-12 16:12:55.531338,2019-11-12 16:12:56.212642,69,4.883102066666667,P2,Conflict_Resolution
False,RIGHT,983.3333353,,,,,RIGHT,391.1815999999817,2019-11-12 16:12:57.211988,2019-11-12 16:12:57.811338,70,4.883102066666667,P2,Conflict_Resolution
False,RIGHT,1150.0000023,,,,,RIGHT,347.32610000003206,2019-11-12 16:12:58.976702,2019-11-12 16:12:59.531446,71,4.883102066666667,P2,Conflict_Resolution
False,RIGHT,1383.3333361,,,,,RIGHT,366.6101000000026,2019-11-12 16:13:00.931847,2019-11-12 16:13:01.505841,72,4.883102066666667,P2,Conflict_Resolution
True,RIGHT,883.3333351,,,,,RIGHT,497.9185999999345,2019-11-12 16:13:02.408962,2019-11-12 16:13:03.115015,73,4.883102066666667,P2,Conflict_Resolution
False,RIGHT,850.0000017,,,,,RIGHT,368.3736000000408,2019-11-12 16:13:03.985984,2019-11-12 16:13:04.562424,74,4.883102066666667,P2,Conflict_Resolution
True,LEFT,1366.6666694,,,,,LEFT,431.1376000000564,2019-11-12 16:13:05.949295,2019-11-12 16:13:06.588196,75,4.883102066666667,P2,Conflict_Resolution
True,LEFT,583.3333345,,,,,LEFT,396.9498999999814,2019-11-12 16:13:07.191322,2019-11-12 16:13:07.796256,76,4.883102066666667,P2,Conflict_Resolution
False,RIGHT,1183.3333357000001,,,,,RIGHT,430.3440999999566,2019-11-12 16:13:08.999494,2019-11-12 16:13:09.637465,77,4.883102066666667,P2,Conflict_Resolution
False,RIGHT,750.0000015,,,,,RIGHT,360.63400000000456,2019-11-12 16:13:10.407412,2019-11-12 16:13:10.974934,78,4.883102066666667,P2,Conflict_Resolution
True,RIGHT,1100.0000022,,,,,RIGHT,475.18239999999423,2019-11-12 16:13:12.094463,2019-11-12 16:13:12.776715,79,4.883102066666667,P2,Conflict_Resolution
True,LEFT,850.0000017,,,,,LEFT,588.8605999999754,2019-11-12 16:13:13.647859,2019-11-12 16:13:14.443680,80,4.883102066666667,P2,Conflict_Resolution
False,LEFT,1000.000002,,,,,LEFT,386.38079999998354,2019-11-12 16:13:15.460228,2019-11-12 16:13:16.054410,81,4.883102066666667,P2,Conflict_Resolution
False,LEFT,516.6666677000001,,,,,LEFT,378.3539999999448,2019-11-12 16:13:16.587585,2019-11-12 16:13:17.172815,82,4.883102066666667,P2,Conflict_Resolution
False,LEFT,1166.666669,,,,,LEFT,323.9056000001028,2019-11-12 16:13:18.357583,2019-11-12 16:13:18.887878,83,4.883102066666667,P2,Conflict_Resolution
True,LEFT,1100.0000022,,,,,LEFT,484.8146999999017,2019-11-12 16:13:20.003930,2019-11-12 16:13:20.695586,84,4.883102066666667,P2,Conflict_Resolution
True,LEFT,900.0000018000001,,,,,LEFT,467.3477000000048,2019-11-12 16:13:21.618520,2019-11-12 16:13:22.293296,85,4.883102066666667,P2,Conflict_Resolution
False,LEFT,1366.6666694,,,,,LEFT,407.16870000005656,2019-11-12 16:13:23.675896,2019-11-12 16:13:24.290008,86,4.883102066666667,P2,Conflict_Resolution
True,LEFT,1150.0000023,,,,,LEFT,972.5766000000249,2019-11-12 16:13:25.462283,2019-11-12 16:13:26.640704,87,4.883102066666667,P2,Conflict_Resolution
True,LEFT,966.6666686,,,,,LEFT,402.43169999996553,2019-11-12 16:13:27.627397,2019-11-12 16:13:28.235813,88,4.883102066666667,P2,Conflict_Resolution
False,LEFT,683.3333347,,,,,LEFT,329.6086000000287,2019-11-12 16:13:28.937742,2019-11-12 16:13:29.474220,89,4.883102066666667,P2,Conflict_Resolution
True,RIGHT,1083.3333355,,,,,RIGHT,396.44830000008824,2019-11-12 16:13:30.573978,2019-11-12 16:13:31.178391,90,4.883102066666667,P2,Conflict_Resolution
False,RIGHT,1133.3333356,,,,,RIGHT,321.1602999999741,2019-11-12 16:13:32.331739,2019-11-12 16:13:32.860443,91,4.883102066666667,P2,Conflict_Resolution
False,LEFT,1100.0000022,,,,,LEFT,369.64660000001004,2019-11-12 16:13:33.977641,2019-11-12 16:13:34.554551,92,4.883102066666667,P2,Conflict_Resolution
False,LEFT,816.6666683,,,,,LEFT,329.87900000000536,2019-11-12 16:13:35.390313,2019-11-12 16:13:35.928427,93,4.883102066666667,P2,Conflict_Resolution
True,RIGHT,1416.6666695000001,,,,,RIGHT,453.28410000001895,2019-11-12 16:13:37.362207,2019-11-12 16:13:38.022017,94,4.883102066666667,P2,Conflict_Resolution
True,RIGHT,750.0000015,,,,,RIGHT,506.95870000004106,2019-11-12 16:13:38.788146,2019-11-12 16:13:39.503890,95,4.883102066666667,P2,Conflict_Resolution
False,RIGHT,533.3333344,,,,,RIGHT,448.7376999999242,2019-11-12 16:13:40.058449,2019-11-12 16:13:40.714359,96,4.883102066666667,P2,Conflict_Resolution
False,LEFT,1400.0000028,,,,,LEFT,397.84209999993436,2019-11-12 16:13:42.135600,2019-11-12 16:13:42.740014,97,4.883102066666667,P2,Conflict_Resolution
True,RIGHT,983.3333353,,,,,RIGHT,421.68870000000425,2019-11-12 16:13:43.743846,2019-11-12 16:13:44.373224,98,4.883102066666667,P2,Conflict_Resolution
True,LEFT,1066.6666688,,,,,LEFT,385.5341999999382,2019-11-12 16:13:45.454455,2019-11-12 16:13:46.046895,99,4.883102066666667,P2,Conflict_Resolution
True,RIGHT,533.3333344,,,,,RIGHT,531.8358999999191,2019-11-12 16:13:46.600411,2019-11-12 16:13:47.339406,100,4.883102066666667,P2,Conflict_Resolution
False,RIGHT,1233.3333358,,,,,RIGHT,374.0639000000101,2019-11-12 16:13:48.590107,2019-11-12 16:13:49.171624,101,4.883102066666667,P2,Conflict_Resolution
True,RIGHT,583.3333345,,,,,RIGHT,363.8249000000542,2019-11-12 16:13:49.772201,2019-11-12 16:13:50.344175,102,4.883102066666667,P2,Conflict_Resolution
False,RIGHT,1033.3333354000001,,,,,RIGHT,358.1547999999657,2019-11-12 16:13:51.395460,2019-11-12 16:13:51.961000,103,4.883102066666667,P2,Conflict_Resolution
False,RIGHT,1000.000002,,,,,RIGHT,289.88909999998214,2019-11-12 16:13:52.979662,2019-11-12 16:13:53.477601,104,4.883102066666667,P2,Conflict_Resolution
True,LEFT,1350.0000027,,,,,RIGHT,291.50559999993675,2019-11-12 16:13:54.844079,2019-11-12 16:13:55.342060,105,4.883102066666667,P2,Conflict_Resolution
False,RIGHT,683.3333347,,,,,RIGHT,381.0829999999896,2019-11-12 16:13:56.041571,2019-11-12 16:13:56.629023,106,4.883102066666667,P2,Conflict_Resolution
False,LEFT,716.6666681,,,,,LEFT,359.21650000000227,2019-11-12 16:13:57.366398,2019-11-12 16:13:57.933431,107,4.883102066666667,P2,Conflict_Resolution
True,LEFT,1166.666669,,,,,LEFT,390.4628999999886,2019-11-12 16:13:59.117412,2019-11-12 16:13:59.715011,108,4.883102066666667,P2,Conflict_Resolution
False,LEFT,1266.6666692000001,,,,,LEFT,333.27620000000024,2019-11-12 16:14:00.999692,2019-11-12 16:14:01.540426,109,4.883102066666667,P2,Conflict_Resolution
False,LEFT,1250.0000025,,,,,LEFT,324.7059000000263,2019-11-12 16:14:02.811187,2019-11-12 16:14:03.344286,110,4.883102066666667,P2,Conflict_Resolution
True,LEFT,566.6666678,,,,,LEFT,434.8068000000467,2019-11-12 16:14:03.927750,2019-11-12 16:14:04.570312,111,4.883102066666667,P2,Conflict_Resolution
False,RIGHT,933.3333352,,,,,RIGHT,455.73819999992793,2019-11-12 16:14:05.520735,2019-11-12 16:14:06.183287,112,4.883102066666667,P2,Conflict_Resolution
True,LEFT,516.6666677000001,,,,,LEFT,479.0453999999045,2019-11-12 16:14:06.714832,2019-11-12 16:14:07.399671,113,4.883102066666667,P2,Conflict_Resolution
False,RIGHT,1216.6666691,,,,,RIGHT,373.02569999997104,2019-11-12 16:14:08.635544,2019-11-12 16:14:09.215058,114,4.883102066666667,P2,Conflict_Resolution
False,LEFT,1500.000003,,,,,LEFT,313.784700000042,2019-11-12 16:14:10.734037,2019-11-12 16:14:11.254841,115,4.883102066666667,P2,Conflict_Resolution
False,LEFT,733.3333348,,,,,LEFT,312.44010000000344,2019-11-12 16:14:12.008917,2019-11-12 16:14:12.528582,116,4.883102066666667,P2,Conflict_Resolution
False,LEFT,1050.0000021,,,,,LEFT,333.8369000000512,2019-11-12 16:14:13.600537,2019-11-12 16:14:14.141802,117,4.883102066666667,P2,Conflict_Resolution
True,LEFT,1250.0000025,,,,,LEFT,401.85619999999744,2019-11-12 16:14:15.410960,2019-11-12 16:14:16.020469,118,4.883102066666667,P2,Conflict_Resolution
False,LEFT,966.6666686,,,,,LEFT,315.3780000000097,2019-11-12 16:14:17.010530,2019-11-12 16:14:17.533200,119,4.883102066666667,P2,Conflict_Resolution
False,LEFT,916.6666685,,,,,LEFT,303.9045000000442,2019-11-12 16:14:18.469737,2019-11-12 16:14:18.980843,120,4.883102066666667,P2,Conflict_Resolution
True,LEFT,1500.000003,,,,,LEFT,392.7786000000424,2019-11-12 16:14:20.500895,2019-11-12 16:14:21.101507,121,4.883102066666667,P2,Conflict_Resolution
False,LEFT,666.6666680000001,,,,,LEFT,360.9053000000131,2019-11-12 16:14:21.783216,2019-11-12 16:14:22.349769,122,4.883102066666667,P2,Conflict_Resolution
False,RIGHT,733.3333348,,,,,RIGHT,415.193600000066,2019-11-12 16:14:23.099618,2019-11-12 16:14:23.721007,123,4.883102066666667,P2,Conflict_Resolution
True,RIGHT,1333.3333360000001,,,,,RIGHT,506.92930000002434,2019-11-12 16:14:25.074015,2019-11-12 16:14:25.788126,124,4.883102066666667,P2,Conflict_Resolution
True,RIGHT,1133.3333356,,,,,RIGHT,395.3985999999077,2019-11-12 16:14:26.944074,2019-11-12 16:14:27.547033,125,4.883102066666667,P2,Conflict_Resolution
True,LEFT,766.6666682,,,,,RIGHT,400.9598999999753,2019-11-12 16:14:28.335294,2019-11-12 16:14:28.943407,126,4.883102066666667,P2,Conflict_Resolution
True,RIGHT,1466.6666696,,,,,RIGHT,412.03569999993306,2019-11-12 16:14:30.430516,2019-11-12 16:14:31.048649,127,4.883102066666667,P2,Conflict_Resolution
False,LEFT,633.3333346000001,,,,,LEFT,376.7007999999805,2019-11-12 16:14:31.699951,2019-11-12 16:14:32.283974,128,4.883102066666667,P2,Conflict_Resolution
False,LEFT,566.6666678,,,,,LEFT,395.86320000000796,2019-11-12 16:14:32.867022,2019-11-12 16:14:33.469826,129,4.883102066666667,P2,Conflict_Resolution
False,RIGHT,550.0000011,,,,,RIGHT,385.31250000005457,2019-11-12 16:14:34.038318,2019-11-12 16:14:34.630027,130,4.883102066666667,P2,Conflict_Resolution
False,LEFT,1416.6666695000001,,,,,LEFT,364.38169999996717,2019-11-12 16:14:36.064791,2019-11-12 16:14:36.636588,131,4.883102066666667,P2,Conflict_Resolution
True,RIGHT,1183.3333357000001,,,,,RIGHT,482.62019999992845,2019-11-12 16:14:37.835085,2019-11-12 16:14:38.523845,132,4.883102066666667,P2,Conflict_Resolution
True,LEFT,1416.6666695000001,,,,,LEFT,414.7645000000466,2019-11-12 16:14:39.961925,2019-11-12 16:14:40.583171,133,4.883102066666667,P2,Conflict_Resolution
True,RIGHT,1283.3333359,,,,,RIGHT,505.962400000044,2019-11-12 16:14:41.884789,2019-11-12 16:14:42.597274,134,4.883102066666667,P2,Conflict_Resolution
True,LEFT,1316.6666693,,,,,LEFT,457.2675000000572,2019-11-12 16:14:43.932924,2019-11-12 16:14:44.597487,135,4.883102066666667,P2,Conflict_Resolution
False,LEFT,1016.6666687000001,,,,,LEFT,339.5707999999331,2019-11-12 16:14:45.635095,2019-11-12 16:14:46.181536,136,4.883102066666667,P2,Conflict_Resolution
False,RIGHT,600.0000012,,,,,RIGHT,400.7100999999693,2019-11-12 16:14:46.797925,2019-11-12 16:14:47.406332,137,4.883102066666667,P2,Conflict_Resolution
True,RIGHT,933.3333352,,,,,RIGHT,549.2392999999538,2019-11-12 16:14:48.358970,2019-11-12 16:14:49.114970,138,4.883102066666667,P2,Conflict_Resolution
False,LEFT,766.6666682,,,,,LEFT,365.864399999964,2019-11-12 16:14:49.897814,2019-11-12 16:14:50.471558,139,4.883102066666667,P2,Conflict_Resolution
True,LEFT,1200.0000024,,,,,LEFT,465.6092999999828,2019-11-12 16:14:51.687298,2019-11-12 16:14:52.359625,140,4.883102066666667,P2,Conflict_Resolution
False,LEFT,1150.0000023,,,,,LEFT,351.7518999999538,2019-11-12 16:14:53.528585,2019-11-12 16:14:54.087618,141,4.883102066666667,P2,Conflict_Resolution
True,LEFT,1050.0000021,,,,,LEFT,408.5086999999703,2019-11-12 16:14:55.155966,2019-11-12 16:14:55.772498,142,4.883102066666667,P2,Conflict_Resolution
False,RIGHT,1316.6666693,,,,,RIGHT,391.23749999998836,2019-11-12 16:14:57.108195,2019-11-12 16:14:57.707155,143,4.883102066666667,P2,Conflict_Resolution
False,LEFT,616.6666679,,,,,LEFT,416.6098000000602,2019-11-12 16:14:58.340479,2019-11-12 16:14:58.964278,144,4.883102066666667,P2,Conflict_Resolution
True,RIGHT,633.3333346000001,,,,,RIGHT,417.45939999998427,2019-11-12 16:14:59.617608,2019-11-12 16:15:00.242333,145,4.883102066666667,P2,Conflict_Resolution
True,LEFT,683.3333347,,,,,LEFT,415.0927999999112,2019-11-12 16:15:00.942141,2019-11-12 16:15:01.564683,146,4.883102066666667,P2,Conflict_Resolution
True,RIGHT,1383.3333361,,,,,RIGHT,484.42230000000563,2019-11-12 16:15:02.964122,2019-11-12 16:15:03.656007,147,4.883102066666667,P2,Conflict_Resolution
False,RIGHT,1266.6666692000001,,,,,RIGHT,409.2534000000114,2019-11-12 16:15:04.940783,2019-11-12 16:15:05.557027,148,4.883102066666667,P2,Conflict_Resolution
True,LEFT,1300.0000026,,,,,LEFT,490.48660000005384,2019-11-12 16:15:06.871572,2019-11-12 16:15:07.569050,149,4.883102066666667,P2,Conflict_Resolution
True,RIGHT,950.0000019,,,,,RIGHT,454.5239000000265,2019-11-12 16:15:08.537768,2019-11-12 16:15:09.199580,150,4.883102066666667,P2,Conflict_Resolution
False,LEFT,583.3333345,,,,,LEFT,371.430499999974,2019-11-12 16:15:09.802963,2019-11-12 16:15:10.380894,151,4.883102066666667,P2,Conflict_Resolution
True,LEFT,633.3333346000001,,,,,LEFT,459.4500999999127,2019-11-12 16:15:11.034147,2019-11-12 16:15:11.701426,152,4.883102066666667,P2,Conflict_Resolution
True,RIGHT,800.0000016,,,,,RIGHT,485.7488000000103,2019-11-12 16:15:12.520977,2019-11-12 16:15:13.213649,153,4.883102066666667,P2,Conflict_Resolution
True,LEFT,616.6666679,,,,,LEFT,508.0541000000949,2019-11-12 16:15:13.845983,2019-11-12 16:15:14.562205,154,4.883102066666667,P2,Conflict_Resolution
True,RIGHT,1216.6666691,,,,,RIGHT,457.63780000004317,2019-11-12 16:15:15.793927,2019-11-12 16:15:16.458673,155,4.883102066666667,P2,Conflict_Resolution
True,LEFT,1400.0000028,,,,,LEFT,440.72560000006433,2019-11-12 16:15:17.877004,2019-11-12 16:15:18.525545,156,4.883102066666667,P2,Conflict_Resolution
True,RIGHT,1233.3333358,,,,,RIGHT,481.18269999997665,2019-11-12 16:15:19.782031,2019-11-12 16:15:20.469703,157,4.883102066666667,P2,Conflict_Resolution
False,LEFT,1066.6666688,,,,,LEFT,396.6242000000193,2019-11-12 16:15:21.554528,2019-11-12 16:15:22.157397,158,4.883102066666667,P2,Conflict_Resolution
True,RIGHT,900.0000018000001,,,,,RIGHT,507.3906000000079,2019-11-12 16:15:23.077513,2019-11-12 16:15:23.791834,159,4.883102066666667,P2,Conflict_Resolution
False,LEFT,1300.0000026,,,,,LEFT,339.1831999999795,2019-11-12 16:15:25.115123,2019-11-12 16:15:25.661096,160,4.883102066666667,P2,Conflict_Resolution
