Stimulus_Side,ITI,Previous_Response,Previous_RT,Response,RT,Trial_Time_Onset,Trial_Time_End,Trial_Order,Duration,Participant,Task
LEFT,666.6666680000001,,,Time_Max_Exceeded,2702.6946000000007,2019-11-07 18:35:15.220662,2019-11-07 18:35:17.962481,1,1.9159050499999999,S7,Processing_Speed
RIGHT,1016.6666687000001,,,Time_Max_Exceeded,1863.8435000000015,2019-11-07 18:35:19.013296,2019-11-07 18:35:20.893374,2,1.9159050499999999,S7,Processing_Speed
RIGHT,1266.6666692000001,,,Time_Max_Exceeded,1500.1345000000015,2019-11-07 18:35:22.178161,2019-11-07 18:35:23.695228,3,1.9159050499999999,S7,Processing_Speed
LEFT,1216.6666691,,,Time_Max_Exceeded,2278.441600000008,2019-11-07 18:35:24.928855,2019-11-07 18:35:27.230237,4,1.9159050499999999,S7,Processing_Speed
RIGHT,1466.6666696,,,Time_Max_Exceeded,2214.3728000000065,2019-11-07 18:35:28.716352,2019-11-07 18:35:30.947890,5,1.9159050499999999,S7,Processing_Speed
LEFT,1433.3333362,,,Time_Max_Exceeded,1500.161399999996,2019-11-07 18:35:32.400675,2019-11-07 18:35:33.914188,6,1.9159050499999999,S7,Processing_Speed
LEFT,1400.0000028,,,Time_Max_Exceeded,1500.1179999999863,2019-11-07 18:35:35.328327,2019-11-07 18:35:36.844603,7,1.9159050499999999,S7,Processing_Speed
LEFT,1083.3333355,,,DOWN,3854.4483999999957,2019-11-07 18:35:37.945304,2019-11-07 18:35:42.019334,8,1.9159050499999999,S7,Processing_Speed
LEFT,850.0000017,,,DOWN,39.649700000012444,2019-11-07 18:35:42.899828,2019-11-07 18:35:43.157484,9,1.9159050499999999,S7,Processing_Speed
LEFT,600.0000012,,,DOWN,587.0891000000142,2019-11-07 18:35:43.783299,2019-11-07 18:35:44.589137,10,1.9159050499999999,S7,Processing_Speed
LEFT,1500.000003,,,DOWN,361.0919999999851,2019-11-07 18:35:46.114495,2019-11-07 18:35:46.689249,11,1.9159050499999999,S7,Processing_Speed
RIGHT,600.0000012,,,Time_Max_Exceeded,1500.1106999999934,2019-11-07 18:35:47.311870,2019-11-07 18:35:48.830297,12,1.9159050499999999,S7,Processing_Speed
LEFT,1466.6666696,UP,-887.882,DOWN,541.9124999999951,2019-11-07 18:35:50.313396,2019-11-07 18:35:51.080349,13,1.9159050499999999,S7,Processing_Speed
RIGHT,666.6666680000001,,,DOWN,252.22030000000473,2019-11-07 18:35:51.774728,2019-11-07 18:35:52.241196,14,1.9159050499999999,S7,Processing_Speed
LEFT,1333.3333360000001,,,DOWN,311.86639999998533,2019-11-07 18:35:53.600532,2019-11-07 18:35:54.134365,15,1.9159050499999999,S7,Processing_Speed
RIGHT,1366.6666694,,,DOWN,432.4260999999865,2019-11-07 18:35:55.527277,2019-11-07 18:35:56.191375,16,1.9159050499999999,S7,Processing_Speed
LEFT,1183.3333357000001,,,DOWN,232.7161999999987,2019-11-07 18:35:57.404319,2019-11-07 18:35:57.851552,17,1.9159050499999999,S7,Processing_Speed
RIGHT,1333.3333360000001,,,DOWN,214.50830000000565,2019-11-07 18:35:59.212224,2019-11-07 18:35:59.645423,18,1.9159050499999999,S7,Processing_Speed
LEFT,783.3333349000001,,,DOWN,274.50300000000993,2019-11-07 18:36:00.456231,2019-11-07 18:36:00.945392,19,1.9159050499999999,S7,Processing_Speed
LEFT,533.3333344,,,DOWN,307.8796000000068,2019-11-07 18:36:01.504232,2019-11-07 18:36:02.032089,20,1.9159050499999999,S7,Processing_Speed
RIGHT,633.3333346000001,,,DOWN,241.16170000002057,2019-11-07 18:36:02.690128,2019-11-07 18:36:03.151195,21,1.9159050499999999,S7,Processing_Speed
RIGHT,916.6666685,,,DOWN,281.1577000000227,2019-11-07 18:36:04.091015,2019-11-07 18:36:04.589604,22,1.9159050499999999,S7,Processing_Speed
LEFT,916.6666685,,,DOWN,414.770400000009,2019-11-07 18:36:05.536257,2019-11-07 18:36:06.169138,23,1.9159050499999999,S7,Processing_Speed
RIGHT,1183.3333357000001,,,DOWN,196.41180000002123,2019-11-07 18:36:07.378453,2019-11-07 18:36:07.793553,24,1.9159050499999999,S7,Processing_Speed
RIGHT,1300.0000026,,,DOWN,152.77030000001446,2019-11-07 18:36:09.119494,2019-11-07 18:36:09.496240,25,1.9159050499999999,S7,Processing_Speed
RIGHT,883.3333351,,,DOWN,264.4485000000145,2019-11-07 18:36:10.402387,2019-11-07 18:36:10.888456,26,1.9159050499999999,S7,Processing_Speed
RIGHT,500.000001,,,DOWN,250.1826999999821,2019-11-07 18:36:11.414903,2019-11-07 18:36:11.887469,27,1.9159050499999999,S7,Processing_Speed
LEFT,500.000001,,,DOWN,286.52999999999906,2019-11-07 18:36:12.414245,2019-11-07 18:36:12.924133,28,1.9159050499999999,S7,Processing_Speed
LEFT,633.3333346000001,,,DOWN,308.44670000001884,2019-11-07 18:36:13.584263,2019-11-07 18:36:14.113282,29,1.9159050499999999,S7,Processing_Speed
LEFT,816.6666683,,,DOWN,287.31469999999604,2019-11-07 18:36:14.954998,2019-11-07 18:36:15.458446,30,1.9159050499999999,S7,Processing_Speed
LEFT,1266.6666692000001,,,DOWN,280.9244999999976,2019-11-07 18:36:16.750297,2019-11-07 18:36:17.248534,31,1.9159050499999999,S7,Processing_Speed
LEFT,1150.0000023,,,DOWN,247.85130000000777,2019-11-07 18:36:18.426833,2019-11-07 18:36:18.887394,32,1.9159050499999999,S7,Processing_Speed
LEFT,1050.0000021,,,DOWN,250.36369999997987,2019-11-07 18:36:19.963154,2019-11-07 18:36:20.431707,33,1.9159050499999999,S7,Processing_Speed
RIGHT,950.0000019,,,DOWN,204.58540000001335,2019-11-07 18:36:21.410535,2019-11-07 18:36:21.838958,34,1.9159050499999999,S7,Processing_Speed
RIGHT,1433.3333362,,,DOWN,238.23720000001458,2019-11-07 18:36:23.302233,2019-11-07 18:36:23.758426,35,1.9159050499999999,S7,Processing_Speed
LEFT,566.6666678,,,DOWN,366.00680000000807,2019-11-07 18:36:24.346090,2019-11-07 18:36:24.931064,36,1.9159050499999999,S7,Processing_Speed
LEFT,883.3333351,,,DOWN,283.0222000000049,2019-11-07 18:36:25.839617,2019-11-07 18:36:26.347169,37,1.9159050499999999,S7,Processing_Speed
RIGHT,1150.0000023,,,DOWN,185.80389999999625,2019-11-07 18:36:27.522423,2019-11-07 18:36:27.924570,38,1.9159050499999999,S7,Processing_Speed
RIGHT,700.0000014,,,DOWN,265.15810000000783,2019-11-07 18:36:28.650104,2019-11-07 18:36:29.146949,39,1.9159050499999999,S7,Processing_Speed
LEFT,1300.0000026,,,DOWN,243.45110000001569,2019-11-07 18:36:30.472127,2019-11-07 18:36:30.935381,40,1.9159050499999999,S7,Processing_Speed
RIGHT,1216.6666691,,,DOWN,219.18660000000045,2019-11-07 18:36:32.176270,2019-11-07 18:36:32.613482,41,1.9159050499999999,S7,Processing_Speed
LEFT,1116.6666689,,,DOWN,251.66799999999512,2019-11-07 18:36:33.756706,2019-11-07 18:36:34.225595,42,1.9159050499999999,S7,Processing_Speed
RIGHT,566.6666678,,,DOWN,231.42959999995583,2019-11-07 18:36:34.818195,2019-11-07 18:36:35.268532,43,1.9159050499999999,S7,Processing_Speed
RIGHT,783.3333349000001,,,DOWN,240.71969999999965,2019-11-07 18:36:36.077254,2019-11-07 18:36:36.556552,44,1.9159050499999999,S7,Processing_Speed
RIGHT,1050.0000021,,,DOWN,248.87619999998378,2019-11-07 18:36:37.629330,2019-11-07 18:36:38.095361,45,1.9159050499999999,S7,Processing_Speed
LEFT,733.3333348,,,DOWN,259.3903999999725,2019-11-07 18:36:38.855202,2019-11-07 18:36:39.333289,46,1.9159050499999999,S7,Processing_Speed
LEFT,983.3333353,,,DOWN,270.6054000000222,2019-11-07 18:36:40.342385,2019-11-07 18:36:40.824483,47,1.9159050499999999,S7,Processing_Speed
RIGHT,1083.3333355,,,DOWN,182.13259999998854,2019-11-07 18:36:41.933385,2019-11-07 18:36:42.334631,48,1.9159050499999999,S7,Processing_Speed
RIGHT,816.6666683,,,DOWN,214.97770000001992,2019-11-07 18:36:43.174430,2019-11-07 18:36:43.609448,49,1.9159050499999999,S7,Processing_Speed
LEFT,1016.6666687000001,,,DOWN,190.30870000000277,2019-11-07 18:36:44.650183,2019-11-07 18:36:45.059158,50,1.9159050499999999,S7,Processing_Speed
RIGHT,1116.6666689,,,DOWN,175.64379999998891,2019-11-07 18:36:46.201315,2019-11-07 18:36:46.609367,51,1.9159050499999999,S7,Processing_Speed
LEFT,1366.6666694,,,DOWN,204.74949999999126,2019-11-07 18:36:48.001288,2019-11-07 18:36:48.424458,52,1.9159050499999999,S7,Processing_Speed
RIGHT,983.3333353,DOWN,-238.44899999999998,DOWN,391.01610000000164,2019-11-07 18:36:49.434516,2019-11-07 18:36:50.041575,53,1.9159050499999999,S7,Processing_Speed
RIGHT,533.3333344,,,DOWN,421.48939999998447,2019-11-07 18:36:50.600293,2019-11-07 18:36:51.239356,54,1.9159050499999999,S7,Processing_Speed
LEFT,950.0000019,,,DOWN,241.41040000000658,2019-11-07 18:36:52.215406,2019-11-07 18:36:52.674520,55,1.9159050499999999,S7,Processing_Speed
RIGHT,1400.0000028,,,DOWN,94.67690000002449,2019-11-07 18:36:54.098345,2019-11-07 18:36:54.406967,56,1.9159050499999999,S7,Processing_Speed
RIGHT,733.3333348,,,DOWN,247.22090000000208,2019-11-07 18:36:55.162891,2019-11-07 18:36:55.635355,57,1.9159050499999999,S7,Processing_Speed
RIGHT,850.0000017,,,DOWN,224.40000000000282,2019-11-07 18:36:56.512161,2019-11-07 18:36:56.954422,58,1.9159050499999999,S7,Processing_Speed
LEFT,700.0000014,,,DOWN,219.62189999999282,2019-11-07 18:36:57.681345,2019-11-07 18:36:58.118661,59,1.9159050499999999,S7,Processing_Speed
RIGHT,1500.000003,,,DOWN,212.76810000000523,2019-11-07 18:36:59.642537,2019-11-07 18:37:00.068197,60,1.9159050499999999,S7,Processing_Speed
