Stimulus_Side,ITI,Stop_Signal,Stop_Signal_RT,Previous_Response,Previous_RT,Response,RT,Trial_Time_Onset,Trial_Time_End,Trial_Order,Duration,Participant,Task
RIGHT,1450.0000029,False,,,,RIGHT,397.8002999999717,2019-11-07 18:40:13.597258,2019-11-07 18:40:14.232252,1.0,2.7008865666666666,S7,Response_Inhibition
LEFT,1233.3333358,False,,,,LEFT,272.1936000000369,2019-11-07 18:40:15.503005,2019-11-07 18:40:16.012401,2.0,2.7008865666666666,S7,Response_Inhibition
LEFT,1083.3333355,False,,,,LEFT,307.99989999997024,2019-11-07 18:40:17.135511,2019-11-07 18:40:17.684337,3.0,2.7008865666666666,S7,Response_Inhibition
RIGHT,1500.000003,False,,,,RIGHT,785.0584000000254,2019-11-07 18:40:19.218193,2019-11-07 18:40:20.238179,4.0,2.7008865666666666,S7,Response_Inhibition
LEFT,1216.6666691,False,,,,LEFT,324.02030000002924,2019-11-07 18:40:21.484499,2019-11-07 18:40:22.033156,5.0,2.7008865666666666,S7,Response_Inhibition
RIGHT,633.3333346000001,True,50.0000001,,,Time_Max_Exceeded,1500.182200100029,2019-11-07 18:40:22.695216,2019-11-07 18:40:24.205365,6.0,2.7008865666666666,S7,Response_Inhibition
RIGHT,700.0000014,True,83.33333350000001,,,RIGHT,306.4936335000177,2019-11-07 18:40:24.935722,2019-11-07 18:40:25.488963,7.0,2.7008865666666666,S7,Response_Inhibition
LEFT,850.0000017,False,,,,LEFT,327.234800000042,2019-11-07 18:40:26.373215,2019-11-07 18:40:26.924024,8.0,2.7008865666666666,S7,Response_Inhibition
RIGHT,1083.3333355,False,,,,RIGHT,436.33490000001984,2019-11-07 18:40:28.034407,2019-11-07 18:40:28.686139,9.0,2.7008865666666666,S7,Response_Inhibition
LEFT,733.3333348,False,,,,LEFT,724.1813999999636,2019-11-07 18:40:29.447539,2019-11-07 18:40:30.394781,10.0,2.7008865666666666,S7,Response_Inhibition
LEFT,583.3333345,True,116.6666669,,,LEFT,372.6998668999903,2019-11-07 18:40:31.003190,2019-11-07 18:40:31.598890,11.0,2.7008865666666666,S7,Response_Inhibition
LEFT,600.0000012,False,,,,LEFT,346.6968000000179,2019-11-07 18:40:32.224032,2019-11-07 18:40:32.789889,12.0,2.7008865666666666,S7,Response_Inhibition
LEFT,1050.0000021,False,,,,LEFT,375.6419000000051,2019-11-07 18:40:33.865268,2019-11-07 18:40:34.459721,13.0,2.7008865666666666,S7,Response_Inhibition
LEFT,1200.0000024,False,,,,LEFT,714.0656999999919,2019-11-07 18:40:35.689221,2019-11-07 18:40:36.622180,14.0,2.7008865666666666,S7,Response_Inhibition
RIGHT,933.3333352,True,216.6666671,,,Time_Max_Exceeded,1500.1481670999935,2019-11-07 18:40:37.581342,2019-11-07 18:40:39.092009,15.0,2.7008865666666666,S7,Response_Inhibition
LEFT,1066.6666688,False,,,,LEFT,281.9840999999883,2019-11-07 18:40:40.177218,2019-11-07 18:40:40.676777,16.0,2.7008865666666666,S7,Response_Inhibition
RIGHT,1050.0000021,False,,,,RIGHT,331.45060000003923,2019-11-07 18:40:41.759841,2019-11-07 18:40:42.314441,17.0,2.7008865666666666,S7,Response_Inhibition
RIGHT,800.0000016,False,,,,RIGHT,395.3050999999732,2019-11-07 18:40:43.141520,2019-11-07 18:40:43.754594,18.0,2.7008865666666666,S7,Response_Inhibition
RIGHT,616.6666679,False,,,,RIGHT,430.0609000000577,2019-11-07 18:40:44.397379,2019-11-07 18:40:45.050393,19.0,2.7008865666666666,S7,Response_Inhibition
RIGHT,1216.6666691,True,33.3333334,,,Time_Max_Exceeded,1500.124633400068,2019-11-07 18:40:46.294370,2019-11-07 18:40:47.802358,20.0,2.7008865666666666,S7,Response_Inhibition
LEFT,1283.3333359,False,,,,LEFT,302.4278000000322,2019-11-07 18:40:49.102187,2019-11-07 18:40:49.624933,21.0,2.7008865666666666,S7,Response_Inhibition
RIGHT,1416.6666695000001,True,33.3333334,,,Time_Max_Exceeded,1500.2465334000217,2019-11-07 18:40:51.067122,2019-11-07 18:40:52.575396,22.0,2.7008865666666666,S7,Response_Inhibition
RIGHT,1383.3333361,False,,,,RIGHT,566.1285999999564,2019-11-07 18:40:53.978118,2019-11-07 18:40:54.762516,23.0,2.7008865666666666,S7,Response_Inhibition
LEFT,1400.0000028,True,233.3333338,,,LEFT,391.8065338000031,2019-11-07 18:40:56.185919,2019-11-07 18:40:56.802444,24.0,2.7008865666666666,S7,Response_Inhibition
RIGHT,1300.0000026,True,166.66666700000002,,,RIGHT,269.6705669999761,2019-11-07 18:40:58.134218,2019-11-07 18:40:58.634641,25.0,2.7008865666666666,S7,Response_Inhibition
LEFT,1133.3333356,True,183.3333337,,,Time_Max_Exceeded,1500.1217336999503,2019-11-07 18:40:59.792786,2019-11-07 18:41:01.301205,26.0,2.7008865666666666,S7,Response_Inhibition
RIGHT,1150.0000023,False,,,,RIGHT,538.9897000000019,2019-11-07 18:41:02.467940,2019-11-07 18:41:03.222293,27.0,2.7008865666666666,S7,Response_Inhibition
RIGHT,1183.3333357000001,False,,,,RIGHT,308.76520000003893,2019-11-07 18:41:04.432126,2019-11-07 18:41:04.950406,28.0,2.7008865666666666,S7,Response_Inhibition
LEFT,833.333335,False,,,,LEFT,382.84859999998844,2019-11-07 18:41:05.812227,2019-11-07 18:41:06.411475,29.0,2.7008865666666666,S7,Response_Inhibition
RIGHT,600.0000012,False,,,,RIGHT,322.3649999999907,2019-11-07 18:41:07.036238,2019-11-07 18:41:07.572261,30.0,2.7008865666666666,S7,Response_Inhibition
LEFT,1100.0000022,True,66.6666668,,,Time_Max_Exceeded,1500.2762667999543,2019-11-07 18:41:08.698051,2019-11-07 18:41:10.206131,31.0,2.7008865666666666,S7,Response_Inhibition
LEFT,1316.6666693,True,133.3333336,,,Time_Max_Exceeded,1500.128033600014,2019-11-07 18:41:11.543022,2019-11-07 18:41:13.049035,32.0,2.7008865666666666,S7,Response_Inhibition
RIGHT,950.0000019,False,,,,RIGHT,494.49649999996836,2019-11-07 18:41:14.016281,2019-11-07 18:41:14.728452,33.0,2.7008865666666666,S7,Response_Inhibition
RIGHT,900.0000018000001,False,,,,RIGHT,384.9376000000575,2019-11-07 18:41:15.656044,2019-11-07 18:41:16.265956,34.0,2.7008865666666666,S7,Response_Inhibition
LEFT,1366.6666694,False,,,,LEFT,389.55009999995127,2019-11-07 18:41:17.667623,2019-11-07 18:41:18.294419,35.0,2.7008865666666666,S7,Response_Inhibition
RIGHT,716.6666681,False,,,,RIGHT,276.53810000003887,2019-11-07 18:41:19.036169,2019-11-07 18:41:19.531197,36.0,2.7008865666666666,S7,Response_Inhibition
LEFT,683.3333347,False,,,,LEFT,297.52080000002934,2019-11-07 18:41:20.246095,2019-11-07 18:41:20.762632,37.0,2.7008865666666666,S7,Response_Inhibition
LEFT,1416.6666695000001,False,,,,LEFT,328.85810000004767,2019-11-07 18:41:22.206198,2019-11-07 18:41:22.750091,38.0,2.7008865666666666,S7,Response_Inhibition
LEFT,766.6666682,False,,,,LEFT,307.33920000000126,2019-11-07 18:41:23.542032,2019-11-07 18:41:24.073965,39.0,2.7008865666666666,S7,Response_Inhibition
LEFT,1000.000002,True,200.0000004,,,LEFT,341.0057003999369,2019-11-07 18:41:25.103073,2019-11-07 18:41:25.669498,40.0,2.7008865666666666,S7,Response_Inhibition
RIGHT,983.3333353,True,200.0000004,,,RIGHT,278.68290040010345,2019-11-07 18:41:26.679384,2019-11-07 18:41:27.184690,41.0,2.7008865666666666,S7,Response_Inhibition
RIGHT,1216.6666691,True,133.3333336,,,Time_Max_Exceeded,1500.1953335999692,2019-11-07 18:41:28.436310,2019-11-07 18:41:29.951195,42.0,2.7008865666666666,S7,Response_Inhibition
LEFT,700.0000014,True,233.3333338,,,Time_Max_Exceeded,1500.0986337999746,2019-11-07 18:41:30.671651,2019-11-07 18:41:32.178041,43.0,2.7008865666666666,S7,Response_Inhibition
RIGHT,1316.6666693,False,,,,RIGHT,555.9258999999201,2019-11-07 18:41:33.511242,2019-11-07 18:41:34.286418,44.0,2.7008865666666666,S7,Response_Inhibition
LEFT,950.0000019,False,,,,LEFT,356.1082000001079,2019-11-07 18:41:35.266078,2019-11-07 18:41:35.834570,45.0,2.7008865666666666,S7,Response_Inhibition
RIGHT,1416.6666695000001,False,,,,RIGHT,594.8760999999649,2019-11-07 18:41:37.277374,2019-11-07 18:41:38.086180,46.0,2.7008865666666666,S7,Response_Inhibition
RIGHT,1133.3333356,False,,,,RIGHT,625.6244999999581,2019-11-07 18:41:39.245189,2019-11-07 18:41:40.086316,47.0,2.7008865666666666,S7,Response_Inhibition
RIGHT,1116.6666689,True,116.6666669,,,RIGHT,305.3700669000085,2019-11-07 18:41:41.228576,2019-11-07 18:41:41.757666,48.0,2.7008865666666666,S7,Response_Inhibition
RIGHT,550.0000011,True,16.6666667,,,Time_Max_Exceeded,1500.1462667000096,2019-11-07 18:41:42.333209,2019-11-07 18:41:43.842187,49.0,2.7008865666666666,S7,Response_Inhibition
LEFT,1433.3333362,False,,,,LEFT,656.0363999999481,2019-11-07 18:41:45.293316,2019-11-07 18:41:46.163081,50.0,2.7008865666666666,S7,Response_Inhibition
RIGHT,566.6666678,False,,,,RIGHT,543.5890999999629,2019-11-07 18:41:46.758119,2019-11-07 18:41:47.520394,51.0,2.7008865666666666,S7,Response_Inhibition
RIGHT,516.6666677000001,False,,,,RIGHT,494.8693999999705,2019-11-07 18:41:48.070090,2019-11-07 18:41:48.781208,52.0,2.7008865666666666,S7,Response_Inhibition
RIGHT,666.6666680000001,False,,,,RIGHT,690.5027000000246,2019-11-07 18:41:49.480285,2019-11-07 18:41:50.389366,53.0,2.7008865666666666,S7,Response_Inhibition
LEFT,1316.6666693,False,,,,LEFT,470.79569999993964,2019-11-07 18:41:51.732335,2019-11-07 18:41:52.420452,54.0,2.7008865666666666,S7,Response_Inhibition
RIGHT,850.0000017,False,,,,RIGHT,598.8314999999602,2019-11-07 18:41:53.297464,2019-11-07 18:41:54.115222,55.0,2.7008865666666666,S7,Response_Inhibition
LEFT,1216.6666691,True,183.3333337,,,LEFT,309.2477337000561,2019-11-07 18:41:55.357265,2019-11-07 18:41:55.893130,56.0,2.7008865666666666,S7,Response_Inhibition
RIGHT,1316.6666693,False,,,,RIGHT,450.5243999999493,2019-11-07 18:41:57.234722,2019-11-07 18:41:57.898378,57.0,2.7008865666666666,S7,Response_Inhibition
RIGHT,500.000001,False,,,,RIGHT,596.8702000000121,2019-11-07 18:41:58.426336,2019-11-07 18:41:59.241528,58.0,2.7008865666666666,S7,Response_Inhibition
LEFT,516.6666677000001,False,,,,LEFT,567.9780000000392,2019-11-07 18:41:59.784178,2019-11-07 18:42:00.573844,59.0,2.7008865666666666,S7,Response_Inhibition
LEFT,850.0000017,False,,,,LEFT,610.0009000000455,2019-11-07 18:42:01.447086,2019-11-07 18:42:02.273298,60.0,2.7008865666666666,S7,Response_Inhibition
RIGHT,1166.666669,True,100.0000002,,,Time_Max_Exceeded,1500.1462001999946,2019-11-07 18:42:03.464343,2019-11-07 18:42:04.971039,61.0,2.7008865666666666,S7,Response_Inhibition
RIGHT,883.3333351,False,,,,RIGHT,499.4164999999384,2019-11-07 18:42:05.873128,2019-11-07 18:42:06.591294,62.0,2.7008865666666666,S7,Response_Inhibition
LEFT,883.3333351,True,100.0000002,,,Time_Max_Exceeded,1500.138600199991,2019-11-07 18:42:07.500202,2019-11-07 18:42:09.009040,63.0,2.7008865666666666,S7,Response_Inhibition
LEFT,800.0000016,False,,,,LEFT,404.8847999999907,2019-11-07 18:42:09.821075,2019-11-07 18:42:10.444083,64.0,2.7008865666666666,S7,Response_Inhibition
LEFT,816.6666683,True,216.6666671,,,LEFT,393.4392671000494,2019-11-07 18:42:11.288136,2019-11-07 18:42:11.908481,65.0,2.7008865666666666,S7,Response_Inhibition
LEFT,950.0000019,False,,,,LEFT,526.429300000018,2019-11-07 18:42:12.884778,2019-11-07 18:42:13.629742,66.0,2.7008865666666666,S7,Response_Inhibition
LEFT,1500.000003,False,,,,LEFT,540.8189000000903,2019-11-07 18:42:15.152680,2019-11-07 18:42:15.911376,67.0,2.7008865666666666,S7,Response_Inhibition
RIGHT,1400.0000028,True,50.0000001,,,Time_Max_Exceeded,1500.1850001000332,2019-11-07 18:42:17.342657,2019-11-07 18:42:18.852143,68.0,2.7008865666666666,S7,Response_Inhibition
LEFT,1250.0000025,False,,,,LEFT,386.638600000083,2019-11-07 18:42:20.118929,2019-11-07 18:42:20.724296,69.0,2.7008865666666666,S7,Response_Inhibition
LEFT,1016.6666687000001,False,,,,LEFT,469.8324999999386,2019-11-07 18:42:21.767146,2019-11-07 18:42:22.455482,70.0,2.7008865666666666,S7,Response_Inhibition
LEFT,650.0000013,True,0.0,,,Time_Max_Exceeded,1500.1206000000593,2019-11-07 18:42:23.129137,2019-11-07 18:42:24.629202,71.0,2.7008865666666666,S7,Response_Inhibition
LEFT,1450.0000029,False,,,,LEFT,408.147299999996,2019-11-07 18:42:26.094287,2019-11-07 18:42:26.719825,72.0,2.7008865666666666,S7,Response_Inhibition
RIGHT,533.3333344,False,,,,RIGHT,475.7667000000083,2019-11-07 18:42:27.277884,2019-11-07 18:42:27.972568,73.0,2.7008865666666666,S7,Response_Inhibition
RIGHT,1266.6666692000001,False,,,,RIGHT,523.1430999999702,2019-11-07 18:42:29.267067,2019-11-07 18:42:30.007489,74.0,2.7008865666666666,S7,Response_Inhibition
LEFT,1033.3333354000001,False,,,,LEFT,329.48879999992187,2019-11-07 18:42:31.064511,2019-11-07 18:42:31.611319,75.0,2.7008865666666666,S7,Response_Inhibition
RIGHT,1033.3333354000001,True,33.3333334,,,Time_Max_Exceeded,1500.147433399965,2019-11-07 18:42:32.668162,2019-11-07 18:42:34.175190,76.0,2.7008865666666666,S7,Response_Inhibition
LEFT,633.3333346000001,False,,,,LEFT,379.91299999998773,2019-11-07 18:42:34.826744,2019-11-07 18:42:35.424919,77.0,2.7008865666666666,S7,Response_Inhibition
RIGHT,1050.0000021,False,,,,RIGHT,491.21200000001863,2019-11-07 18:42:36.499285,2019-11-07 18:42:37.212551,78.0,2.7008865666666666,S7,Response_Inhibition
RIGHT,633.3333346000001,False,,,,LEFT,354.9808000000212,2019-11-07 18:42:37.871855,2019-11-07 18:42:38.445381,79.0,2.7008865666666666,S7,Response_Inhibition
RIGHT,1150.0000023,False,,,,RIGHT,372.4014999999099,2019-11-07 18:42:39.621236,2019-11-07 18:42:40.203722,80.0,2.7008865666666666,S7,Response_Inhibition
LEFT,550.0000011,False,,,,,,,,,2.7008865666666666,S7,Response_Inhibition
RIGHT,733.3333348,False,,,,,,,,,2.7008865666666666,S7,Response_Inhibition
LEFT,716.6666681,False,,,,,,,,,2.7008865666666666,S7,Response_Inhibition
LEFT,1050.0000021,True,250.0000005,,,,,,,,2.7008865666666666,S7,Response_Inhibition
LEFT,750.0000015,True,16.6666667,,,,,,,,2.7008865666666666,S7,Response_Inhibition
RIGHT,850.0000017,True,250.0000005,,,,,,,,2.7008865666666666,S7,Response_Inhibition
RIGHT,1333.3333360000001,False,,,,,,,,,2.7008865666666666,S7,Response_Inhibition
RIGHT,1100.0000022,True,266.6666672,,,,,,,,2.7008865666666666,S7,Response_Inhibition
RIGHT,766.6666682,True,116.6666669,,,,,,,,2.7008865666666666,S7,Response_Inhibition
LEFT,1466.6666696,False,,,,,,,,,2.7008865666666666,S7,Response_Inhibition
LEFT,633.3333346000001,False,,,,,,,,,2.7008865666666666,S7,Response_Inhibition
RIGHT,750.0000015,False,,,,,,,,,2.7008865666666666,S7,Response_Inhibition
RIGHT,1366.6666694,False,,,,,,,,,2.7008865666666666,S7,Response_Inhibition
LEFT,533.3333344,False,,,,,,,,,2.7008865666666666,S7,Response_Inhibition
RIGHT,533.3333344,True,250.0000005,,,,,,,,2.7008865666666666,S7,Response_Inhibition
LEFT,566.6666678,False,,,,,,,,,2.7008865666666666,S7,Response_Inhibition
LEFT,1416.6666695000001,True,83.33333350000001,,,,,,,,2.7008865666666666,S7,Response_Inhibition
RIGHT,1100.0000022,False,,,,,,,,,2.7008865666666666,S7,Response_Inhibition
RIGHT,1283.3333359,False,,,,,,,,,2.7008865666666666,S7,Response_Inhibition
LEFT,666.6666680000001,True,66.6666668,,,,,,,,2.7008865666666666,S7,Response_Inhibition
LEFT,500.000001,True,266.6666672,,,,,,,,2.7008865666666666,S7,Response_Inhibition
RIGHT,783.3333349000001,False,,,,,,,,,2.7008865666666666,S7,Response_Inhibition
RIGHT,866.6666684,False,,,,,,,,,2.7008865666666666,S7,Response_Inhibition
RIGHT,900.0000018000001,True,66.6666668,,,,,,,,2.7008865666666666,S7,Response_Inhibition
RIGHT,816.6666683,False,,,,,,,,,2.7008865666666666,S7,Response_Inhibition
LEFT,1150.0000023,True,83.33333350000001,,,,,,,,2.7008865666666666,S7,Response_Inhibition
LEFT,783.3333349000001,True,150.0000003,,,,,,,,2.7008865666666666,S7,Response_Inhibition
LEFT,1183.3333357000001,False,,,,,,,,,2.7008865666666666,S7,Response_Inhibition
RIGHT,1066.6666688,False,,,,,,,,,2.7008865666666666,S7,Response_Inhibition
RIGHT,1350.0000027,False,,,,,,,,,2.7008865666666666,S7,Response_Inhibition
RIGHT,1250.0000025,False,,,,,,,,,2.7008865666666666,S7,Response_Inhibition
RIGHT,1266.6666692000001,True,266.6666672,,,,,,,,2.7008865666666666,S7,Response_Inhibition
LEFT,1300.0000026,True,50.0000001,,,,,,,,2.7008865666666666,S7,Response_Inhibition
LEFT,900.0000018000001,True,283.3333339,,,,,,,,2.7008865666666666,S7,Response_Inhibition
LEFT,1100.0000022,False,,,,,,,,,2.7008865666666666,S7,Response_Inhibition
LEFT,733.3333348,False,,,,,,,,,2.7008865666666666,S7,Response_Inhibition
LEFT,533.3333344,True,166.66666700000002,,,,,,,,2.7008865666666666,S7,Response_Inhibition
LEFT,933.3333352,True,150.0000003,,,,,,,,2.7008865666666666,S7,Response_Inhibition
RIGHT,1233.3333358,False,,,,,,,,,2.7008865666666666,S7,Response_Inhibition
LEFT,900.0000018000001,False,,,,,,,,,2.7008865666666666,S7,Response_Inhibition
RIGHT,583.3333345,False,,,,,,,,,2.7008865666666666,S7,Response_Inhibition
LEFT,966.6666686,False,,,,,,,,,2.7008865666666666,S7,Response_Inhibition
RIGHT,1016.6666687000001,True,0.0,,,,,,,,2.7008865666666666,S7,Response_Inhibition
LEFT,866.6666684,False,,,,,,,,,2.7008865666666666,S7,Response_Inhibition
LEFT,683.3333347,False,,,,,,,,,2.7008865666666666,S7,Response_Inhibition
RIGHT,1000.000002,False,,,,,,,,,2.7008865666666666,S7,Response_Inhibition
RIGHT,783.3333349000001,False,,,,,,,,,2.7008865666666666,S7,Response_Inhibition
RIGHT,1000.000002,False,,,,,,,,,2.7008865666666666,S7,Response_Inhibition
RIGHT,1466.6666696,True,100.0000002,,,,,,,,2.7008865666666666,S7,Response_Inhibition
RIGHT,1200.0000024,False,,,,,,,,,2.7008865666666666,S7,Response_Inhibition
LEFT,783.3333349000001,False,,,,,,,,,2.7008865666666666,S7,Response_Inhibition
RIGHT,1466.6666696,False,,,,,,,,,2.7008865666666666,S7,Response_Inhibition
RIGHT,950.0000019,False,,,,,,,,,2.7008865666666666,S7,Response_Inhibition
LEFT,1266.6666692000001,False,,,,,,,,,2.7008865666666666,S7,Response_Inhibition
LEFT,1366.6666694,True,166.66666700000002,,,,,,,,2.7008865666666666,S7,Response_Inhibition
LEFT,1466.6666696,True,150.0000003,,,,,,,,2.7008865666666666,S7,Response_Inhibition
LEFT,1266.6666692000001,True,283.3333339,,,,,,,,2.7008865666666666,S7,Response_Inhibition
LEFT,583.3333345,False,,,,,,,,,2.7008865666666666,S7,Response_Inhibition
RIGHT,1433.3333362,False,,,,,,,,,2.7008865666666666,S7,Response_Inhibition
RIGHT,916.6666685,False,,,,,,,,,2.7008865666666666,S7,Response_Inhibition
RIGHT,683.3333347,False,,,,,,,,,2.7008865666666666,S7,Response_Inhibition
RIGHT,583.3333345,True,133.3333336,,,,,,,,2.7008865666666666,S7,Response_Inhibition
LEFT,1483.3333363,False,,,,,,,,,2.7008865666666666,S7,Response_Inhibition
LEFT,1116.6666689,False,,,,,,,,,2.7008865666666666,S7,Response_Inhibition
RIGHT,733.3333348,True,183.3333337,,,,,,,,2.7008865666666666,S7,Response_Inhibition
RIGHT,650.0000013,True,216.6666671,,,,,,,,2.7008865666666666,S7,Response_Inhibition
LEFT,1383.3333361,False,,,,,,,,,2.7008865666666666,S7,Response_Inhibition
RIGHT,966.6666686,False,,,,,,,,,2.7008865666666666,S7,Response_Inhibition
RIGHT,1483.3333363,False,,,,,,,,,2.7008865666666666,S7,Response_Inhibition
LEFT,1166.666669,False,,,,,,,,,2.7008865666666666,S7,Response_Inhibition
RIGHT,833.333335,True,200.0000004,,,,,,,,2.7008865666666666,S7,Response_Inhibition
LEFT,1000.000002,True,16.6666667,,,,,,,,2.7008865666666666,S7,Response_Inhibition
LEFT,1350.0000027,False,,,,,,,,,2.7008865666666666,S7,Response_Inhibition
LEFT,1150.0000023,False,,,,,,,,,2.7008865666666666,S7,Response_Inhibition
RIGHT,683.3333347,False,,,,,,,,,2.7008865666666666,S7,Response_Inhibition
LEFT,983.3333353,False,,,,,,,,,2.7008865666666666,S7,Response_Inhibition
LEFT,1333.3333360000001,False,,,,,,,,,2.7008865666666666,S7,Response_Inhibition
LEFT,916.6666685,False,,,,,,,,,2.7008865666666666,S7,Response_Inhibition
LEFT,616.6666679,True,233.3333338,,,,,,,,2.7008865666666666,S7,Response_Inhibition
RIGHT,1366.6666694,True,133.3333336,,,,,,,,2.7008865666666666,S7,Response_Inhibition
