Stimulus_Side,ITI,Previous_Response,Previous_RT,Response,RT,Trial_Time_Onset,Trial_Time_End,Trial_Order,Duration,Participant,Task
RIGHT,566.6666678,,,Time_Max_Exceeded,1500.0634000000018,2019-12-19 13:00:16.933808,2019-12-19 13:00:18.439165,1,1.9425184,S19,Processing_Speed
LEFT,733.3333348,,,Time_Max_Exceeded,1500.0605999999975,2019-12-19 13:00:19.182056,2019-12-19 13:00:20.688277,2,1.9425184,S19,Processing_Speed
LEFT,916.6666685,,,DOWN,2447.4693999999886,2019-12-19 13:00:21.613871,2019-12-19 13:00:24.268463,3,1.9425184,S19,Processing_Speed
LEFT,1083.3333355,,,DOWN,380.69109999999284,2019-12-19 13:00:25.360809,2019-12-19 13:00:25.948881,4,1.9425184,S19,Processing_Speed
RIGHT,850.0000017,,,DOWN,253.6340999999993,2019-12-19 13:00:26.807486,2019-12-19 13:00:27.268792,5,1.9425184,S19,Processing_Speed
LEFT,633.3333346000001,,,DOWN,254.066899999998,2019-12-19 13:00:27.911712,2019-12-19 13:00:28.374035,6,1.9425184,S19,Processing_Speed
LEFT,850.0000017,,,DOWN,340.3966000000054,2019-12-19 13:00:29.233166,2019-12-19 13:00:29.782239,7,1.9425184,S19,Processing_Speed
RIGHT,1266.6666692000001,DOWN,-168.27100000000002,DOWN,491.16139999999575,2019-12-19 13:00:31.058135,2019-12-19 13:00:31.757294,8,1.9425184,S19,Processing_Speed
RIGHT,666.6666680000001,,,DOWN,323.81319999998937,2019-12-19 13:00:32.433188,2019-12-19 13:00:32.968863,9,1.9425184,S19,Processing_Speed
LEFT,1266.6666692000001,,,DOWN,254.71059999999568,2019-12-19 13:00:34.246849,2019-12-19 13:00:34.709837,10,1.9425184,S19,Processing_Speed
LEFT,600.0000012,,,DOWN,327.27479999999787,2019-12-19 13:00:35.318121,2019-12-19 13:00:35.854290,11,1.9425184,S19,Processing_Speed
LEFT,950.0000019,,,DOWN,279.5559999999995,2019-12-19 13:00:36.813392,2019-12-19 13:00:37.300405,12,1.9425184,S19,Processing_Speed
RIGHT,1083.3333355,,,DOWN,268.99039999999275,2019-12-19 13:00:38.392186,2019-12-19 13:00:38.868505,13,1.9425184,S19,Processing_Speed
LEFT,1333.3333360000001,,,DOWN,250.3487999999976,2019-12-19 13:00:40.211025,2019-12-19 13:00:40.668430,14,1.9425184,S19,Processing_Speed
LEFT,700.0000014,,,DOWN,339.87380000000655,2019-12-19 13:00:41.376829,2019-12-19 13:00:41.925172,15,1.9425184,S19,Processing_Speed
RIGHT,1433.3333362,,,DOWN,260.95610000000136,2019-12-19 13:00:43.368089,2019-12-19 13:00:43.836436,16,1.9425184,S19,Processing_Speed
RIGHT,600.0000012,,,DOWN,343.9422999999948,2019-12-19 13:00:44.445468,2019-12-19 13:00:44.996998,17,1.9425184,S19,Processing_Speed
LEFT,883.3333351,,,DOWN,284.0809000000206,2019-12-19 13:00:45.888979,2019-12-19 13:00:46.382231,18,1.9425184,S19,Processing_Speed
RIGHT,1183.3333357000001,,,DOWN,240.05149999999276,2019-12-19 13:00:47.573791,2019-12-19 13:00:48.024995,19,1.9425184,S19,Processing_Speed
LEFT,500.000001,,,DOWN,350.5554999999845,2019-12-19 13:00:48.534636,2019-12-19 13:00:49.092745,20,1.9425184,S19,Processing_Speed
LEFT,533.3333344,,,DOWN,289.74759999999833,2019-12-19 13:00:49.635809,2019-12-19 13:00:50.133110,21,1.9425184,S19,Processing_Speed
LEFT,566.6666678,,,DOWN,304.82280000001083,2019-12-19 13:00:50.708078,2019-12-19 13:00:51.222043,22,1.9425184,S19,Processing_Speed
LEFT,1116.6666689,,,DOWN,305.62129999998433,2019-12-19 13:00:52.347256,2019-12-19 13:00:52.861958,23,1.9425184,S19,Processing_Speed
RIGHT,1333.3333360000001,,,DOWN,352.9775000000086,2019-12-19 13:00:54.203895,2019-12-19 13:00:54.765071,24,1.9425184,S19,Processing_Speed
LEFT,1500.000003,,,DOWN,282.23299999999085,2019-12-19 13:00:56.274769,2019-12-19 13:00:56.765102,25,1.9425184,S19,Processing_Speed
RIGHT,883.3333351,,,DOWN,451.9971999999939,2019-12-19 13:00:57.656811,2019-12-19 13:00:58.318101,26,1.9425184,S19,Processing_Speed
RIGHT,1400.0000028,,,DOWN,302.4983999999904,2019-12-19 13:00:59.727008,2019-12-19 13:01:00.237900,27,1.9425184,S19,Processing_Speed
RIGHT,1216.6666691,,,DOWN,294.04300000001626,2019-12-19 13:01:01.462734,2019-12-19 13:01:01.964607,28,1.9425184,S19,Processing_Speed
LEFT,1300.0000026,,,DOWN,314.87390000000914,2019-12-19 13:01:03.274211,2019-12-19 13:01:03.797777,29,1.9425184,S19,Processing_Speed
LEFT,1400.0000028,,,DOWN,238.40020000000095,2019-12-19 13:01:05.206689,2019-12-19 13:01:05.652320,30,1.9425184,S19,Processing_Speed
LEFT,1433.3333362,,,DOWN,268.78970000001345,2019-12-19 13:01:07.096654,2019-12-19 13:01:07.572959,31,1.9425184,S19,Processing_Speed
LEFT,1150.0000023,,,DOWN,297.2862999999961,2019-12-19 13:01:08.731641,2019-12-19 13:01:09.237971,32,1.9425184,S19,Processing_Speed
LEFT,1050.0000021,,,DOWN,307.64769999998975,2019-12-19 13:01:10.297435,2019-12-19 13:01:10.812481,33,1.9425184,S19,Processing_Speed
LEFT,1466.6666696,,,DOWN,253.68600000001607,2019-12-19 13:01:12.287783,2019-12-19 13:01:12.749590,34,1.9425184,S19,Processing_Speed
RIGHT,983.3333353,,,DOWN,447.68270000000143,2019-12-19 13:01:13.742498,2019-12-19 13:01:14.397394,35,1.9425184,S19,Processing_Speed
LEFT,1216.6666691,,,DOWN,390.32560000001126,2019-12-19 13:01:15.622940,2019-12-19 13:01:16.222249,36,1.9425184,S19,Processing_Speed
RIGHT,916.6666685,,,DOWN,337.8255000000081,2019-12-19 13:01:17.147416,2019-12-19 13:01:17.693215,37,1.9425184,S19,Processing_Speed
LEFT,1183.3333357000001,,,DOWN,273.0623999999864,2019-12-19 13:01:18.884984,2019-12-19 13:01:19.366331,38,1.9425184,S19,Processing_Speed
LEFT,783.3333349000001,,,DOWN,230.9234000000231,2019-12-19 13:01:20.158343,2019-12-19 13:01:20.596356,39,1.9425184,S19,Processing_Speed
RIGHT,1500.000003,,,DOWN,275.79630000002453,2019-12-19 13:01:22.105353,2019-12-19 13:01:22.588443,40,1.9425184,S19,Processing_Speed
RIGHT,1016.6666687000001,,,DOWN,319.1915000000165,2019-12-19 13:01:23.613856,2019-12-19 13:01:24.140531,41,1.9425184,S19,Processing_Speed
LEFT,666.6666680000001,,,DOWN,308.1964999999798,2019-12-19 13:01:24.816945,2019-12-19 13:01:25.333190,42,1.9425184,S19,Processing_Speed
RIGHT,633.3333346000001,,,DOWN,294.19640000000413,2019-12-19 13:01:25.975042,2019-12-19 13:01:26.478023,43,1.9425184,S19,Processing_Speed
RIGHT,500.000001,,,DOWN,394.69880000001467,2019-12-19 13:01:26.986697,2019-12-19 13:01:27.589077,44,1.9425184,S19,Processing_Speed
RIGHT,533.3333344,,,DOWN,249.39820000000168,2019-12-19 13:01:28.131405,2019-12-19 13:01:28.588880,45,1.9425184,S19,Processing_Speed
RIGHT,1466.6666696,,,DOWN,236.8993000000046,2019-12-19 13:01:30.064046,2019-12-19 13:01:30.509799,46,1.9425184,S19,Processing_Speed
LEFT,1016.6666687000001,,,DOWN,237.70329999999262,2019-12-19 13:01:31.535254,2019-12-19 13:01:31.980485,47,1.9425184,S19,Processing_Speed
RIGHT,733.3333348,,,DOWN,242.20779999998854,2019-12-19 13:01:32.722517,2019-12-19 13:01:33.173122,48,1.9425184,S19,Processing_Speed
RIGHT,1116.6666689,,,DOWN,274.9037000000101,2019-12-19 13:01:34.298293,2019-12-19 13:01:34.781216,49,1.9425184,S19,Processing_Speed
RIGHT,783.3333349000001,,,DOWN,231.86479999998255,2019-12-19 13:01:35.573266,2019-12-19 13:01:36.013108,50,1.9425184,S19,Processing_Speed
RIGHT,1150.0000023,,,DOWN,321.2527000000023,2019-12-19 13:01:37.171589,2019-12-19 13:01:37.701365,51,1.9425184,S19,Processing_Speed
LEFT,816.6666683,,,DOWN,286.54240000000186,2019-12-19 13:01:38.526837,2019-12-19 13:01:39.020638,52,1.9425184,S19,Processing_Speed
RIGHT,1300.0000026,,,DOWN,299.91370000001893,2019-12-19 13:01:40.328633,2019-12-19 13:01:40.836329,53,1.9425184,S19,Processing_Speed
RIGHT,1366.6666694,,,DOWN,289.0146999999956,2019-12-19 13:01:42.212016,2019-12-19 13:01:42.708686,54,1.9425184,S19,Processing_Speed
LEFT,1366.6666694,,,DOWN,313.10080000000085,2019-12-19 13:01:44.083757,2019-12-19 13:01:44.605086,55,1.9425184,S19,Processing_Speed
RIGHT,950.0000019,,,DOWN,297.214600000018,2019-12-19 13:01:45.563824,2019-12-19 13:01:46.068758,56,1.9425184,S19,Processing_Speed
LEFT,983.3333353,,,DOWN,271.6436000000044,2019-12-19 13:01:47.061714,2019-12-19 13:01:47.540506,57,1.9425184,S19,Processing_Speed
RIGHT,1050.0000021,,,DOWN,309.85640000000103,2019-12-19 13:01:48.599127,2019-12-19 13:01:49.116579,58,1.9425184,S19,Processing_Speed
RIGHT,700.0000014,,,DOWN,284.00449999998045,2019-12-19 13:01:49.825392,2019-12-19 13:01:50.317307,59,1.9425184,S19,Processing_Speed
RIGHT,816.6666683,,,DOWN,222.2654999999918,2019-12-19 13:01:51.142830,2019-12-19 13:01:51.573305,60,1.9425184,S19,Processing_Speed
