Stimulus_Side,ITI,Previous_Response,Previous_RT,Response,RT,Trial_Time_Onset,Trial_Time_End,Trial_Order,Duration,Participant,Task
RIGHT,1050.0000021,,,DOWN,890.5077999999946,2019-11-12 11:11:23.592624,2019-11-12 11:11:24.708423,1,1.8261529833333334,P1,Processing_Speed
RIGHT,1466.6666696,,,DOWN,348.83460000000355,2019-11-12 11:11:26.189305,2019-11-12 11:11:26.745313,2,1.8261529833333334,P1,Processing_Speed
LEFT,916.6666685,,,DOWN,356.22739999999453,2019-11-12 11:11:27.678153,2019-11-12 11:11:28.240985,3,1.8261529833333334,P1,Processing_Speed
RIGHT,533.3333344,,,DOWN,309.339499999993,2019-11-12 11:11:28.784613,2019-11-12 11:11:29.300597,4,1.8261529833333334,P1,Processing_Speed
LEFT,500.000001,,,DOWN,345.0198000000029,2019-11-12 11:11:29.814208,2019-11-12 11:11:30.366776,5,1.8261529833333334,P1,Processing_Speed
LEFT,733.3333348,,,DOWN,348.76239999999825,2019-11-12 11:11:31.113787,2019-11-12 11:11:31.669902,6,1.8261529833333334,P1,Processing_Speed
LEFT,566.6666678,,,DOWN,329.0209000000033,2019-11-12 11:11:32.250619,2019-11-12 11:11:32.786859,7,1.8261529833333334,P1,Processing_Speed
LEFT,1466.6666696,,,DOWN,344.75260000000674,2019-11-12 11:11:34.262685,2019-11-12 11:11:34.814670,8,1.8261529833333334,P1,Processing_Speed
LEFT,1266.6666692000001,,,DOWN,326.105400000003,2019-11-12 11:11:36.095067,2019-11-12 11:11:36.627481,9,1.8261529833333334,P1,Processing_Speed
LEFT,1400.0000028,,,DOWN,289.6070999999978,2019-11-12 11:11:38.040268,2019-11-12 11:11:38.536307,10,1.8261529833333334,P1,Processing_Speed
LEFT,533.3333344,,,DOWN,329.80870000000095,2019-11-12 11:11:39.084026,2019-11-12 11:11:39.621870,11,1.8261529833333334,P1,Processing_Speed
RIGHT,1366.6666694,,,DOWN,362.32649999999467,2019-11-12 11:11:41.001672,2019-11-12 11:11:41.570649,12,1.8261529833333334,P1,Processing_Speed
LEFT,1183.3333357000001,,,DOWN,324.3006999999949,2019-11-12 11:11:42.766807,2019-11-12 11:11:43.297787,13,1.8261529833333334,P1,Processing_Speed
LEFT,666.6666680000001,,,DOWN,348.32850000000803,2019-11-12 11:11:43.978018,2019-11-12 11:11:44.533756,14,1.8261529833333334,P1,Processing_Speed
RIGHT,1333.3333360000001,,,DOWN,329.39990000001274,2019-11-12 11:11:45.880142,2019-11-12 11:11:46.416575,15,1.8261529833333334,P1,Processing_Speed
RIGHT,1433.3333362,,,DOWN,401.1490999999978,2019-11-12 11:11:47.856173,2019-11-12 11:11:48.464101,16,1.8261529833333334,P1,Processing_Speed
RIGHT,633.3333346000001,,,DOWN,361.9033000000087,2019-11-12 11:11:49.111394,2019-11-12 11:11:49.680876,17,1.8261529833333334,P1,Processing_Speed
RIGHT,500.000001,,,DOWN,376.28389999999,2019-11-12 11:11:50.195054,2019-11-12 11:11:50.778819,18,1.8261529833333334,P1,Processing_Speed
LEFT,983.3333353,,,DOWN,317.7935000000076,2019-11-12 11:11:51.776295,2019-11-12 11:11:52.302009,19,1.8261529833333334,P1,Processing_Speed
LEFT,1083.3333355,,,DOWN,358.747699999995,2019-11-12 11:11:53.393333,2019-11-12 11:11:53.959835,20,1.8261529833333334,P1,Processing_Speed
RIGHT,883.3333351,,,DOWN,291.98269999999127,2019-11-12 11:11:54.851344,2019-11-12 11:11:55.349152,21,1.8261529833333334,P1,Processing_Speed
RIGHT,600.0000012,,,DOWN,361.80989999999724,2019-11-12 11:11:55.962573,2019-11-12 11:11:56.532006,22,1.8261529833333334,P1,Processing_Speed
RIGHT,1183.3333357000001,,,DOWN,337.07200000000626,2019-11-12 11:11:57.728706,2019-11-12 11:11:58.272534,23,1.8261529833333334,P1,Processing_Speed
RIGHT,816.6666683,,,DOWN,484.30729999999755,2019-11-12 11:11:59.096340,2019-11-12 11:11:59.787309,24,1.8261529833333334,P1,Processing_Speed
RIGHT,1266.6666692000001,,,DOWN,307.00750000001165,2019-11-12 11:12:01.067382,2019-11-12 11:12:01.580189,25,1.8261529833333334,P1,Processing_Speed
RIGHT,1083.3333355,,,DOWN,431.2778000000037,2019-11-12 11:12:02.677937,2019-11-12 11:12:03.316900,26,1.8261529833333334,P1,Processing_Speed
LEFT,1500.000003,,,DOWN,281.91180000000315,2019-11-12 11:12:04.824817,2019-11-12 11:12:05.313337,27,1.8261529833333334,P1,Processing_Speed
RIGHT,733.3333348,,,DOWN,373.80970000000957,2019-11-12 11:12:06.059165,2019-11-12 11:12:06.639040,28,1.8261529833333334,P1,Processing_Speed
RIGHT,983.3333353,,,DOWN,344.5246999999938,2019-11-12 11:12:07.637208,2019-11-12 11:12:08.188946,29,1.8261529833333334,P1,Processing_Speed
RIGHT,916.6666685,,,DOWN,405.65540000000055,2019-11-12 11:12:09.118380,2019-11-12 11:12:09.731273,30,1.8261529833333334,P1,Processing_Speed
RIGHT,1150.0000023,,,DOWN,360.065800000001,2019-11-12 11:12:10.896300,2019-11-12 11:12:11.463696,31,1.8261529833333334,P1,Processing_Speed
RIGHT,700.0000014,,,DOWN,373.5973999999942,2019-11-12 11:12:12.179064,2019-11-12 11:12:12.759190,32,1.8261529833333334,P1,Processing_Speed
LEFT,883.3333351,,,DOWN,430.9367000000037,2019-11-12 11:12:13.656243,2019-11-12 11:12:14.294698,33,1.8261529833333334,P1,Processing_Speed
LEFT,1300.0000026,,,DOWN,305.37219999999365,2019-11-12 11:12:15.608443,2019-11-12 11:12:16.120813,34,1.8261529833333334,P1,Processing_Speed
LEFT,633.3333346000001,,,DOWN,404.2430000000081,2019-11-12 11:12:16.768132,2019-11-12 11:12:17.379858,35,1.8261529833333334,P1,Processing_Speed
LEFT,816.6666683,,,DOWN,418.1006000000025,2019-11-12 11:12:18.208141,2019-11-12 11:12:18.832678,36,1.8261529833333334,P1,Processing_Speed
RIGHT,950.0000019,,,DOWN,369.0793000000099,2019-11-12 11:12:19.797454,2019-11-12 11:12:20.373929,37,1.8261529833333334,P1,Processing_Speed
LEFT,950.0000019,,,DOWN,310.35470000000487,2019-11-12 11:12:21.337333,2019-11-12 11:12:21.854161,38,1.8261529833333334,P1,Processing_Speed
LEFT,1116.6666689,,,DOWN,333.2130999999947,2019-11-12 11:12:22.983815,2019-11-12 11:12:23.523383,39,1.8261529833333334,P1,Processing_Speed
LEFT,1366.6666694,,,DOWN,350.17430000002037,2019-11-12 11:12:24.904601,2019-11-12 11:12:25.462071,40,1.8261529833333334,P1,Processing_Speed
RIGHT,850.0000017,,,DOWN,280.39800000001947,2019-11-12 11:12:26.327048,2019-11-12 11:12:26.813491,41,1.8261529833333334,P1,Processing_Speed
LEFT,1433.3333362,,,DOWN,320.44160000000943,2019-11-12 11:12:28.253852,2019-11-12 11:12:28.781134,42,1.8261529833333334,P1,Processing_Speed
RIGHT,666.6666680000001,,,DOWN,304.06390000001693,2019-11-12 11:12:29.454311,2019-11-12 11:12:29.965319,43,1.8261529833333334,P1,Processing_Speed
LEFT,1216.6666691,,,DOWN,263.6036000000104,2019-11-12 11:12:31.189048,2019-11-12 11:12:31.660786,44,1.8261529833333334,P1,Processing_Speed
LEFT,850.0000017,,,DOWN,355.30729999999267,2019-11-12 11:12:32.517282,2019-11-12 11:12:33.079805,45,1.8261529833333334,P1,Processing_Speed
RIGHT,1016.6666687000001,,,DOWN,331.77820000000224,2019-11-12 11:12:34.103099,2019-11-12 11:12:34.642628,46,1.8261529833333334,P1,Processing_Speed
LEFT,1150.0000023,,,DOWN,274.77830000000836,2019-11-12 11:12:35.799340,2019-11-12 11:12:36.280088,47,1.8261529833333334,P1,Processing_Speed
LEFT,600.0000012,,,DOWN,481.20349999999235,2019-11-12 11:12:36.887065,2019-11-12 11:12:37.574209,48,1.8261529833333334,P1,Processing_Speed
LEFT,1333.3333360000001,,,DOWN,368.5255999999981,2019-11-12 11:12:38.914251,2019-11-12 11:12:39.492713,49,1.8261529833333334,P1,Processing_Speed
RIGHT,1300.0000026,,,DOWN,375.38340000000403,2019-11-12 11:12:40.800415,2019-11-12 11:12:41.382297,50,1.8261529833333334,P1,Processing_Speed
RIGHT,1216.6666691,,,DOWN,286.6051000000027,2019-11-12 11:12:42.606024,2019-11-12 11:12:43.099206,51,1.8261529833333334,P1,Processing_Speed
RIGHT,1116.6666689,,,DOWN,301.3072999999906,2019-11-12 11:12:44.222118,2019-11-12 11:12:44.731754,52,1.8261529833333334,P1,Processing_Speed
LEFT,1016.6666687000001,,,DOWN,283.1594000000166,2019-11-12 11:12:45.755684,2019-11-12 11:12:46.245338,53,1.8261529833333334,P1,Processing_Speed
LEFT,700.0000014,,,DOWN,323.63049999997884,2019-11-12 11:12:46.951664,2019-11-12 11:12:47.482557,54,1.8261529833333334,P1,Processing_Speed
RIGHT,566.6666678,,,DOWN,306.5082999999902,2019-11-12 11:12:48.059126,2019-11-12 11:12:48.572614,55,1.8261529833333334,P1,Processing_Speed
RIGHT,1500.000003,,,DOWN,355.1470999999822,2019-11-12 11:12:50.087071,2019-11-12 11:12:50.648272,56,1.8261529833333334,P1,Processing_Speed
LEFT,783.3333349000001,,,DOWN,291.0007000000121,2019-11-12 11:12:51.444914,2019-11-12 11:12:51.943603,57,1.8261529833333334,P1,Processing_Speed
RIGHT,1400.0000028,,,DOWN,330.1490000000058,2019-11-12 11:12:53.358060,2019-11-12 11:12:53.894361,58,1.8261529833333334,P1,Processing_Speed
LEFT,1050.0000021,,,DOWN,307.13320000000977,2019-11-12 11:12:54.956726,2019-11-12 11:12:55.471277,59,1.8261529833333334,P1,Processing_Speed
RIGHT,783.3333349000001,,,DOWN,335.70749999998384,2019-11-12 11:12:56.267477,2019-11-12 11:12:56.809475,60,1.8261529833333334,P1,Processing_Speed
