Stimulus_Side,ITI,Previous_Response,Previous_RT,Response,RT,Trial_Time_Onset,Trial_Time_End,Trial_Order,Duration,Participant,Task
RIGHT,533.3333344,,,RIGHT,451.7124999999851,2019-11-12 11:13:21.938586,2019-11-12 11:13:22.597206,1,2.5822399333333332,P1,Response_Selection
LEFT,1366.6666694,,,LEFT,302.14580000000524,2019-11-12 11:13:23.971049,2019-11-12 11:13:24.485760,2,2.5822399333333332,P1,Response_Selection
RIGHT,866.6666684,,,RIGHT,361.7155999999966,2019-11-12 11:13:25.359466,2019-11-12 11:13:25.928856,3,2.5822399333333332,P1,Response_Selection
RIGHT,1216.6666691,,,RIGHT,394.43239999999946,2019-11-12 11:13:27.152822,2019-11-12 11:13:27.754824,4,2.5822399333333332,P1,Response_Selection
LEFT,1216.6666691,,,LEFT,567.2505000000001,2019-11-12 11:13:28.984314,2019-11-12 11:13:29.758920,5,2.5822399333333332,P1,Response_Selection
LEFT,683.3333347,,,LEFT,427.72589999998445,2019-11-12 11:13:30.456344,2019-11-12 11:13:31.090121,6,2.5822399333333332,P1,Response_Selection
LEFT,533.3333344,,,LEFT,343.6917999999878,2019-11-12 11:13:31.637676,2019-11-12 11:13:32.188944,7,2.5822399333333332,P1,Response_Selection
RIGHT,600.0000012,,,RIGHT,330.680000000001,2019-11-12 11:13:32.802927,2019-11-12 11:13:33.339086,8,2.5822399333333332,P1,Response_Selection
LEFT,583.3333345,,,LEFT,485.8940000000018,2019-11-12 11:13:33.930996,2019-11-12 11:13:34.623882,9,2.5822399333333332,P1,Response_Selection
RIGHT,633.3333346000001,,,RIGHT,278.6885999999811,2019-11-12 11:13:35.269227,2019-11-12 11:13:35.754642,10,2.5822399333333332,P1,Response_Selection
RIGHT,1500.000003,,,RIGHT,318.1022999999925,2019-11-12 11:13:37.261760,2019-11-12 11:13:37.785511,11,2.5822399333333332,P1,Response_Selection
RIGHT,550.0000011,,,RIGHT,434.5954000000063,2019-11-12 11:13:38.350127,2019-11-12 11:13:38.990335,12,2.5822399333333332,P1,Response_Selection
LEFT,1350.0000027,,,LEFT,522.9547000000139,2019-11-12 11:13:40.354681,2019-11-12 11:13:41.084569,13,2.5822399333333332,P1,Response_Selection
LEFT,966.6666686,,,LEFT,394.14309999997954,2019-11-12 11:13:42.067454,2019-11-12 11:13:42.668868,14,2.5822399333333332,P1,Response_Selection
LEFT,633.3333346000001,,,LEFT,515.3877000000193,2019-11-12 11:13:43.316409,2019-11-12 11:13:44.038550,15,2.5822399333333332,P1,Response_Selection
RIGHT,1400.0000028,,,RIGHT,372.0023999999853,2019-11-12 11:13:45.451430,2019-11-12 11:13:46.030668,16,2.5822399333333332,P1,Response_Selection
LEFT,1416.6666695000001,,,LEFT,325.13969999999404,2019-11-12 11:13:47.460554,2019-11-12 11:13:47.992497,17,2.5822399333333332,P1,Response_Selection
RIGHT,833.333335,,,RIGHT,457.13779999999815,2019-11-12 11:13:48.838402,2019-11-12 11:13:49.502779,18,2.5822399333333332,P1,Response_Selection
LEFT,1466.6666696,,,LEFT,253.63740000000234,2019-11-12 11:13:50.983386,2019-11-12 11:13:51.443901,19,2.5822399333333332,P1,Response_Selection
LEFT,1250.0000025,,,LEFT,416.4871000000119,2019-11-12 11:13:52.707918,2019-11-12 11:13:53.331960,20,2.5822399333333332,P1,Response_Selection
LEFT,1266.6666692000001,,,LEFT,351.81049999999914,2019-11-12 11:13:54.606410,2019-11-12 11:13:55.165137,21,2.5822399333333332,P1,Response_Selection
RIGHT,1016.6666687000001,,,RIGHT,437.30220000000486,2019-11-12 11:13:56.189753,2019-11-12 11:13:56.833813,22,2.5822399333333332,P1,Response_Selection
RIGHT,1166.666669,,,RIGHT,378.2950000000085,2019-11-12 11:13:58.013945,2019-11-12 11:13:58.599893,23,2.5822399333333332,P1,Response_Selection
LEFT,833.333335,,,RIGHT,378.00069999997277,2019-11-12 11:13:59.444596,2019-11-12 11:14:00.030955,24,2.5822399333333332,P1,Response_Selection
RIGHT,700.0000014,,,RIGHT,625.4969999999958,2019-11-12 11:14:00.738414,2019-11-12 11:14:01.571041,25,2.5822399333333332,P1,Response_Selection
RIGHT,933.3333352,,,RIGHT,496.37290000001144,2019-11-12 11:14:02.519780,2019-11-12 11:14:03.222169,26,2.5822399333333332,P1,Response_Selection
RIGHT,983.3333353,,,RIGHT,526.0365999999976,2019-11-12 11:14:04.212603,2019-11-12 11:14:04.945485,27,2.5822399333333332,P1,Response_Selection
RIGHT,1083.3333355,,,RIGHT,374.1924999999924,2019-11-12 11:14:06.040081,2019-11-12 11:14:06.620338,28,2.5822399333333332,P1,Response_Selection
LEFT,783.3333349000001,,,LEFT,307.74739999998246,2019-11-12 11:14:07.417075,2019-11-12 11:14:07.931582,29,2.5822399333333332,P1,Response_Selection
RIGHT,1416.6666695000001,,,RIGHT,343.8607999999874,2019-11-12 11:14:09.360941,2019-11-12 11:14:09.911477,30,2.5822399333333332,P1,Response_Selection
RIGHT,733.3333348,,,RIGHT,504.0553999999986,2019-11-12 11:14:10.659325,2019-11-12 11:14:11.369621,31,2.5822399333333332,P1,Response_Selection
LEFT,883.3333351,,,LEFT,318.2877000000133,2019-11-12 11:14:12.265286,2019-11-12 11:14:12.789488,32,2.5822399333333332,P1,Response_Selection
RIGHT,1366.6666694,,,RIGHT,342.23080000001005,2019-11-12 11:14:14.168417,2019-11-12 11:14:14.717904,33,2.5822399333333332,P1,Response_Selection
RIGHT,1250.0000025,,,RIGHT,461.90129999999385,2019-11-12 11:14:15.981214,2019-11-12 11:14:16.650628,34,2.5822399333333332,P1,Response_Selection
LEFT,1500.000003,,,LEFT,356.6037999999878,2019-11-12 11:14:18.164515,2019-11-12 11:14:18.728641,35,2.5822399333333332,P1,Response_Selection
RIGHT,683.3333347,,,RIGHT,378.1213999999977,2019-11-12 11:14:19.424859,2019-11-12 11:14:20.009913,36,2.5822399333333332,P1,Response_Selection
LEFT,650.0000013,,,LEFT,360.23869999999647,2019-11-12 11:14:20.673354,2019-11-12 11:14:21.241191,37,2.5822399333333332,P1,Response_Selection
LEFT,866.6666684,,,LEFT,364.2238999999847,2019-11-12 11:14:22.119324,2019-11-12 11:14:22.689402,38,2.5822399333333332,P1,Response_Selection
LEFT,1316.6666693,,,LEFT,370.15740000003916,2019-11-12 11:14:24.014365,2019-11-12 11:14:24.592916,39,2.5822399333333332,P1,Response_Selection
LEFT,983.3333353,,,LEFT,332.2738999999615,2019-11-12 11:14:25.588507,2019-11-12 11:14:26.127047,40,2.5822399333333332,P1,Response_Selection
RIGHT,750.0000015,,,RIGHT,324.82399999997824,2019-11-12 11:14:26.890343,2019-11-12 11:14:27.422184,41,2.5822399333333332,P1,Response_Selection
LEFT,933.3333352,,,LEFT,372.57660000000214,2019-11-12 11:14:28.367934,2019-11-12 11:14:28.947369,42,2.5822399333333332,P1,Response_Selection
LEFT,600.0000012,,,LEFT,369.791599999985,2019-11-12 11:14:29.555877,2019-11-12 11:14:30.131328,43,2.5822399333333332,P1,Response_Selection
LEFT,500.000001,,,LEFT,325.8921999999984,2019-11-12 11:14:30.644153,2019-11-12 11:14:31.178022,44,2.5822399333333332,P1,Response_Selection
LEFT,1300.0000026,,,LEFT,375.42310000003454,2019-11-12 11:14:32.491124,2019-11-12 11:14:33.073306,45,2.5822399333333332,P1,Response_Selection
RIGHT,650.0000013,,,LEFT,337.9726000000005,2019-11-12 11:14:33.736293,2019-11-12 11:14:34.281929,46,2.5822399333333332,P1,Response_Selection
RIGHT,1116.6666689,,,RIGHT,481.96840000002794,2019-11-12 11:14:35.412392,2019-11-12 11:14:36.101775,47,2.5822399333333332,P1,Response_Selection
LEFT,550.0000011,,,LEFT,339.95369999996683,2019-11-12 11:14:36.662420,2019-11-12 11:14:37.208392,48,2.5822399333333332,P1,Response_Selection
RIGHT,966.6666686,,,RIGHT,324.65830000001006,2019-11-12 11:14:38.187797,2019-11-12 11:14:38.719883,49,2.5822399333333332,P1,Response_Selection
RIGHT,1450.0000029,,,RIGHT,360.5855000000133,2019-11-12 11:14:40.183793,2019-11-12 11:14:40.751854,50,2.5822399333333332,P1,Response_Selection
LEFT,1450.0000029,,,LEFT,328.583100000003,2019-11-12 11:14:42.215350,2019-11-12 11:14:42.750325,51,2.5822399333333332,P1,Response_Selection
LEFT,1166.666669,,,LEFT,436.15829999998823,2019-11-12 11:14:43.929097,2019-11-12 11:14:44.572545,52,2.5822399333333332,P1,Response_Selection
RIGHT,500.000001,,,RIGHT,686.8559999999775,2019-11-12 11:14:45.085096,2019-11-12 11:14:45.979298,53,2.5822399333333332,P1,Response_Selection
RIGHT,883.3333351,,,RIGHT,411.8316000000277,2019-11-12 11:14:46.872353,2019-11-12 11:14:47.491800,54,2.5822399333333332,P1,Response_Selection
RIGHT,583.3333345,,,RIGHT,542.7914999999643,2019-11-12 11:14:48.089194,2019-11-12 11:14:48.838838,55,2.5822399333333332,P1,Response_Selection
LEFT,916.6666685,,,LEFT,369.38659999998436,2019-11-12 11:14:49.769212,2019-11-12 11:14:50.345841,56,2.5822399333333332,P1,Response_Selection
RIGHT,1033.3333354000001,,,RIGHT,358.24139999999716,2019-11-12 11:14:51.392584,2019-11-12 11:14:51.957717,57,2.5822399333333332,P1,Response_Selection
LEFT,1066.6666688,,,LEFT,567.5221000000192,2019-11-12 11:14:53.033118,2019-11-12 11:14:53.807757,58,2.5822399333333332,P1,Response_Selection
RIGHT,1200.0000024,,,RIGHT,500.7616999999982,2019-11-12 11:14:55.019904,2019-11-12 11:14:55.727245,59,2.5822399333333332,P1,Response_Selection
LEFT,1033.3333354000001,,,LEFT,775.4406000000245,2019-11-12 11:14:56.773052,2019-11-12 11:14:57.755196,60,2.5822399333333332,P1,Response_Selection
LEFT,800.0000016,,,LEFT,668.4002000000078,2019-11-12 11:14:58.567389,2019-11-12 11:14:59.443373,61,2.5822399333333332,P1,Response_Selection
RIGHT,800.0000016,,,RIGHT,477.8474000000301,2019-11-12 11:15:00.257025,2019-11-12 11:15:00.941356,62,2.5822399333333332,P1,Response_Selection
LEFT,1083.3333355,,,LEFT,785.0435999999945,2019-11-12 11:15:02.037754,2019-11-12 11:15:03.031035,63,2.5822399333333332,P1,Response_Selection
RIGHT,916.6666685,,,RIGHT,721.9521999999756,2019-11-12 11:15:03.961408,2019-11-12 11:15:04.890055,64,2.5822399333333332,P1,Response_Selection
LEFT,750.0000015,,,LEFT,665.4652000000283,2019-11-12 11:15:05.652755,2019-11-12 11:15:06.525871,65,2.5822399333333332,P1,Response_Selection
RIGHT,1316.6666693,,,RIGHT,400.525000000016,2019-11-12 11:15:07.851717,2019-11-12 11:15:08.458104,66,2.5822399333333332,P1,Response_Selection
RIGHT,1133.3333356,,,RIGHT,452.3510999999871,2019-11-12 11:15:09.608867,2019-11-12 11:15:10.267323,67,2.5822399333333332,P1,Response_Selection
LEFT,1133.3333356,,,LEFT,349.96139999998377,2019-11-12 11:15:11.413073,2019-11-12 11:15:11.970236,68,2.5822399333333332,P1,Response_Selection
RIGHT,1466.6666696,,,RIGHT,427.17449999997825,2019-11-12 11:15:13.448162,2019-11-12 11:15:14.082121,69,2.5822399333333332,P1,Response_Selection
RIGHT,1266.6666692000001,,,RIGHT,610.0905999999782,2019-11-12 11:15:15.360974,2019-11-12 11:15:16.178804,70,2.5822399333333332,P1,Response_Selection
RIGHT,1066.6666688,,,RIGHT,1086.1194000000296,2019-11-12 11:15:17.259063,2019-11-12 11:15:18.552923,71,2.5822399333333332,P1,Response_Selection
LEFT,1200.0000024,,,LEFT,379.40070000001924,2019-11-12 11:15:19.760719,2019-11-12 11:15:20.347689,72,2.5822399333333332,P1,Response_Selection
RIGHT,783.3333349000001,,,RIGHT,414.8689999999533,2019-11-12 11:15:21.145702,2019-11-12 11:15:21.768693,73,2.5822399333333332,P1,Response_Selection
LEFT,733.3333348,,,LEFT,563.3387000000312,2019-11-12 11:15:22.515505,2019-11-12 11:15:23.285621,74,2.5822399333333332,P1,Response_Selection
RIGHT,1350.0000027,,,RIGHT,340.11409999999387,2019-11-12 11:15:24.647826,2019-11-12 11:15:25.193616,75,2.5822399333333332,P1,Response_Selection
RIGHT,1300.0000026,,,RIGHT,464.13719999998193,2019-11-12 11:15:26.507204,2019-11-12 11:15:27.177161,76,2.5822399333333332,P1,Response_Selection
LEFT,1400.0000028,,,LEFT,322.6665000000253,2019-11-12 11:15:28.585373,2019-11-12 11:15:29.114210,77,2.5822399333333332,P1,Response_Selection
LEFT,1016.6666687000001,,,LEFT,466.61929999999074,2019-11-12 11:15:30.143035,2019-11-12 11:15:30.816407,78,2.5822399333333332,P1,Response_Selection
LEFT,1116.6666689,,,LEFT,422.6257999999916,2019-11-12 11:15:31.947304,2019-11-12 11:15:32.576737,79,2.5822399333333332,P1,Response_Selection
LEFT,700.0000014,,,LEFT,384.8378000000139,2019-11-12 11:15:33.289673,2019-11-12 11:15:33.881842,80,2.5822399333333332,P1,Response_Selection
