Stimulus_Side,ITI,Previous_Response,Previous_RT,Response,RT,Trial_Time_Onset,Trial_Time_End,Trial_Order,Duration,Participant,Task
RIGHT,1050.0000021,,,DOWN,1128.3983000000007,2019-11-06 16:55:06.590534,2019-11-06 16:55:07.939951,1,1.7281245,S6,Processing_Speed
LEFT,1500.000003,,,DOWN,387.5430999999878,2019-11-06 16:55:09.459159,2019-11-06 16:55:10.068230,2,1.7281245,S6,Processing_Speed
LEFT,1333.3333360000001,,,DOWN,351.154600000001,2019-11-06 16:55:11.422292,2019-11-06 16:55:11.993928,3,1.7281245,S6,Processing_Speed
LEFT,1466.6666696,,,DOWN,625.1431000000025,2019-11-06 16:55:13.481323,2019-11-06 16:55:14.327480,4,1.7281245,S6,Processing_Speed
RIGHT,500.000001,,,DOWN,600.1992999999999,2019-11-06 16:55:14.844994,2019-11-06 16:55:15.660230,5,1.7281245,S6,Processing_Speed
LEFT,816.6666683,,,DOWN,405.8696000000026,2019-11-06 16:55:16.497162,2019-11-06 16:55:17.127789,6,1.7281245,S6,Processing_Speed
RIGHT,1183.3333357000001,,,DOWN,265.2771000000058,2019-11-06 16:55:18.332374,2019-11-06 16:55:18.819741,7,1.7281245,S6,Processing_Speed
LEFT,500.000001,,,DOWN,342.5194000000005,2019-11-06 16:55:19.337254,2019-11-06 16:55:19.903025,8,1.7281245,S6,Processing_Speed
RIGHT,1150.0000023,,,DOWN,260.4089999999957,2019-11-06 16:55:21.074126,2019-11-06 16:55:21.557917,9,1.7281245,S6,Processing_Speed
LEFT,700.0000014,,,DOWN,277.2352000000069,2019-11-06 16:55:22.279186,2019-11-06 16:55:22.780116,10,1.7281245,S6,Processing_Speed
RIGHT,883.3333351,,,DOWN,270.5464999999947,2019-11-06 16:55:23.683502,2019-11-06 16:55:24.171458,11,1.7281245,S6,Processing_Speed
RIGHT,633.3333346000001,,,DOWN,356.5847000000133,2019-11-06 16:55:24.826233,2019-11-06 16:55:25.399699,12,1.7281245,S6,Processing_Speed
RIGHT,533.3333344,,,DOWN,378.0930000000069,2019-11-06 16:55:25.952880,2019-11-06 16:55:26.553232,13,1.7281245,S6,Processing_Speed
LEFT,1433.3333362,,,DOWN,266.1923999999942,2019-11-06 16:55:28.008591,2019-11-06 16:55:28.495042,14,1.7281245,S6,Processing_Speed
LEFT,1300.0000026,,,DOWN,336.73899999999435,2019-11-06 16:55:29.815290,2019-11-06 16:55:30.373686,15,1.7281245,S6,Processing_Speed
RIGHT,1433.3333362,,,DOWN,304.5714000000146,2019-11-06 16:55:31.824524,2019-11-06 16:55:32.353525,16,1.7281245,S6,Processing_Speed
RIGHT,850.0000017,,,DOWN,376.1408000000017,2019-11-06 16:55:33.224347,2019-11-06 16:55:33.816004,17,1.7281245,S6,Processing_Speed
LEFT,1083.3333355,,,DOWN,293.10599999999454,2019-11-06 16:55:34.917476,2019-11-06 16:55:35.434546,18,1.7281245,S6,Processing_Speed
LEFT,633.3333346000001,,,DOWN,345.70529999999167,2019-11-06 16:55:36.089063,2019-11-06 16:55:36.650796,19,1.7281245,S6,Processing_Speed
RIGHT,1083.3333355,,,DOWN,318.50549999998634,2019-11-06 16:55:37.756318,2019-11-06 16:55:38.291757,20,1.7281245,S6,Processing_Speed
LEFT,1266.6666692000001,,,DOWN,267.13130000001684,2019-11-06 16:55:39.577258,2019-11-06 16:55:40.067079,21,1.7281245,S6,Processing_Speed
RIGHT,1400.0000028,,,DOWN,301.57019999998624,2019-11-06 16:55:41.487591,2019-11-06 16:55:42.010370,22,1.7281245,S6,Processing_Speed
LEFT,1150.0000023,,,DOWN,299.1255000000024,2019-11-06 16:55:43.180436,2019-11-06 16:55:43.701027,23,1.7281245,S6,Processing_Speed
RIGHT,1300.0000026,,,DOWN,260.22170000001665,2019-11-06 16:55:45.019124,2019-11-06 16:55:45.498290,24,1.7281245,S6,Processing_Speed
RIGHT,1116.6666689,,,DOWN,319.45239999998876,2019-11-06 16:55:46.635714,2019-11-06 16:55:47.175936,25,1.7281245,S6,Processing_Speed
LEFT,1183.3333357000001,,,DOWN,341.2040000000047,2019-11-06 16:55:48.383661,2019-11-06 16:55:48.948417,26,1.7281245,S6,Processing_Speed
RIGHT,566.6666678,,,DOWN,320.55389999999306,2019-11-06 16:55:49.533299,2019-11-06 16:55:50.069453,27,1.7281245,S6,Processing_Speed
RIGHT,816.6666683,,,DOWN,305.51660000000425,2019-11-06 16:55:50.904418,2019-11-06 16:55:51.433297,28,1.7281245,S6,Processing_Speed
LEFT,1016.6666687000001,,,DOWN,299.38640000000305,2019-11-06 16:55:52.471619,2019-11-06 16:55:52.990655,29,1.7281245,S6,Processing_Speed
RIGHT,916.6666685,,,DOWN,253.533200000021,2019-11-06 16:55:53.931778,2019-11-06 16:55:54.408472,30,1.7281245,S6,Processing_Speed
RIGHT,666.6666680000001,,,DOWN,313.7254000000098,2019-11-06 16:55:55.093844,2019-11-06 16:55:55.628247,31,1.7281245,S6,Processing_Speed
LEFT,1400.0000028,,,DOWN,329.52769999999987,2019-11-06 16:55:57.049197,2019-11-06 16:55:57.598836,32,1.7281245,S6,Processing_Speed
RIGHT,1266.6666692000001,,,DOWN,253.03640000001337,2019-11-06 16:55:58.886296,2019-11-06 16:55:59.360601,33,1.7281245,S6,Processing_Speed
RIGHT,1500.000003,,,DOWN,279.66630000000237,2019-11-06 16:56:00.881813,2019-11-06 16:56:01.375458,34,1.7281245,S6,Processing_Speed
LEFT,983.3333353,,,DOWN,303.413699999993,2019-11-06 16:56:02.380114,2019-11-06 16:56:02.904152,35,1.7281245,S6,Processing_Speed
RIGHT,700.0000014,,,DOWN,312.41149999999607,2019-11-06 16:56:03.621089,2019-11-06 16:56:04.155923,36,1.7281245,S6,Processing_Speed
LEFT,600.0000012,,,DOWN,289.1113999999959,2019-11-06 16:56:04.777114,2019-11-06 16:56:05.291856,37,1.7281245,S6,Processing_Speed
RIGHT,1216.6666691,,,DOWN,257.3362999999915,2019-11-06 16:56:06.528222,2019-11-06 16:56:07.008893,38,1.7281245,S6,Processing_Speed
LEFT,916.6666685,,,DOWN,267.1756999999957,2019-11-06 16:56:07.946403,2019-11-06 16:56:08.436204,39,1.7281245,S6,Processing_Speed
RIGHT,1366.6666694,,,DOWN,290.0822999999946,2019-11-06 16:56:09.824091,2019-11-06 16:56:10.336873,40,1.7281245,S6,Processing_Speed
LEFT,1216.6666691,,,DOWN,236.23589999999695,2019-11-06 16:56:11.574271,2019-11-06 16:56:12.031249,41,1.7281245,S6,Processing_Speed
LEFT,1116.6666689,,,DOWN,336.0425000000191,2019-11-06 16:56:13.168012,2019-11-06 16:56:13.725723,42,1.7281245,S6,Processing_Speed
LEFT,850.0000017,,,DOWN,266.6981000000135,2019-11-06 16:56:14.596812,2019-11-06 16:56:15.086147,43,1.7281245,S6,Processing_Speed
RIGHT,983.3333353,,,DOWN,242.57460000001174,2019-11-06 16:56:16.087135,2019-11-06 16:56:16.545393,44,1.7281245,S6,Processing_Speed
LEFT,883.3333351,,,DOWN,284.99210000001085,2019-11-06 16:56:17.450317,2019-11-06 16:56:17.959300,45,1.7281245,S6,Processing_Speed
LEFT,783.3333349000001,,,DOWN,337.7399999999966,2019-11-06 16:56:18.764119,2019-11-06 16:56:19.323148,46,1.7281245,S6,Processing_Speed
LEFT,566.6666678,,,DOWN,341.1252000000218,2019-11-06 16:56:19.908497,2019-11-06 16:56:20.464807,47,1.7281245,S6,Processing_Speed
RIGHT,1016.6666687000001,,,DOWN,282.7856999999767,2019-11-06 16:56:21.502665,2019-11-06 16:56:22.008448,48,1.7281245,S6,Processing_Speed
LEFT,733.3333348,,,DOWN,276.33080000001087,2019-11-06 16:56:22.760064,2019-11-06 16:56:23.259541,49,1.7281245,S6,Processing_Speed
RIGHT,600.0000012,,,DOWN,256.4196999999808,2019-11-06 16:56:23.881155,2019-11-06 16:56:24.361028,50,1.7281245,S6,Processing_Speed
RIGHT,733.3333348,,,DOWN,283.1818000000226,2019-11-06 16:56:25.115265,2019-11-06 16:56:25.621227,51,1.7281245,S6,Processing_Speed
RIGHT,1466.6666696,,,DOWN,272.94330000000855,2019-11-06 16:56:27.109107,2019-11-06 16:56:27.604231,52,1.7281245,S6,Processing_Speed
RIGHT,950.0000019,,,DOWN,309.08619999999587,2019-11-06 16:56:28.575369,2019-11-06 16:56:29.107202,53,1.7281245,S6,Processing_Speed
RIGHT,1333.3333360000001,,,DOWN,223.61710000001267,2019-11-06 16:56:30.460133,2019-11-06 16:56:30.898834,54,1.7281245,S6,Processing_Speed
RIGHT,783.3333349000001,,,DOWN,450.9640999999931,2019-11-06 16:56:31.702483,2019-11-06 16:56:32.377178,55,1.7281245,S6,Processing_Speed
LEFT,1050.0000021,,,DOWN,300.01709999999093,2019-11-06 16:56:33.447946,2019-11-06 16:56:33.969302,56,1.7281245,S6,Processing_Speed
LEFT,1366.6666694,,,DOWN,287.7055000000155,2019-11-06 16:56:35.354670,2019-11-06 16:56:35.863176,57,1.7281245,S6,Processing_Speed
LEFT,666.6666680000001,,,DOWN,323.89820000000213,2019-11-06 16:56:36.554061,2019-11-06 16:56:37.101282,58,1.7281245,S6,Processing_Speed
LEFT,950.0000019,,,DOWN,316.27799999998274,2019-11-06 16:56:38.072592,2019-11-06 16:56:38.610048,59,1.7281245,S6,Processing_Speed
LEFT,533.3333344,,,DOWN,322.8358000000071,2019-11-06 16:56:39.164332,2019-11-06 16:56:39.704677,60,1.7281245,S6,Processing_Speed
