Stimulus_Side,ITI,Previous_Response,Previous_RT,Response,RT,Trial_Time_Onset,Trial_Time_End,Trial_Order,Duration,Participant,Task
RIGHT,600.0000012,,,Time_Max_Exceeded,1500.2037,2019-12-10 16:21:57.206291,2019-12-10 16:21:58.725700,1,2.6406374166666664,jj,Processing_Speed
RIGHT,850.0000017,308,-451.521,Time_Max_Exceeded,1500.0928999999985,2019-12-10 16:21:59.590032,2019-12-10 16:22:01.099480,2,2.6406374166666664,jj,Processing_Speed
RIGHT,1433.3333362,,,Time_Max_Exceeded,1500.0757000000035,2019-12-10 16:22:02.540900,2019-12-10 16:22:04.049327,3,2.6406374166666664,jj,Processing_Speed
RIGHT,1500.000003,,,Time_Max_Exceeded,1500.0739999999978,2019-12-10 16:22:05.555998,2019-12-10 16:22:07.063708,4,2.6406374166666664,jj,Processing_Speed
LEFT,1016.6666687000001,,,Time_Max_Exceeded,1500.0669000000003,2019-12-10 16:22:08.087662,2019-12-10 16:22:09.597069,5,2.6406374166666664,jj,Processing_Speed
LEFT,1050.0000021,,,Time_Max_Exceeded,1500.071400000003,2019-12-10 16:22:10.654734,2019-12-10 16:22:12.162919,6,2.6406374166666664,jj,Processing_Speed
LEFT,633.3333346000001,,,Time_Max_Exceeded,1500.0688999999952,2019-12-10 16:22:12.802645,2019-12-10 16:22:14.309750,7,2.6406374166666664,jj,Processing_Speed
RIGHT,1083.3333355,,,Time_Max_Exceeded,1500.0763000000034,2019-12-10 16:22:15.400572,2019-12-10 16:22:16.908317,8,2.6406374166666664,jj,Processing_Speed
LEFT,983.3333353,,,Time_Max_Exceeded,1500.0679000000048,2019-12-10 16:22:17.898309,2019-12-10 16:22:19.406838,9,2.6406374166666664,jj,Processing_Speed
RIGHT,700.0000014,,,Time_Max_Exceeded,1500.086600000003,2019-12-10 16:22:20.113665,2019-12-10 16:22:21.621713,10,2.6406374166666664,jj,Processing_Speed
LEFT,1400.0000028,,,Time_Max_Exceeded,1500.0644000000066,2019-12-10 16:22:23.028575,2019-12-10 16:22:24.536922,11,2.6406374166666664,jj,Processing_Speed
LEFT,1500.000003,,,Time_Max_Exceeded,1500.0781000000031,2019-12-10 16:22:26.042679,2019-12-10 16:22:27.551510,12,2.6406374166666664,jj,Processing_Speed
LEFT,783.3333349000001,,,Time_Max_Exceeded,1500.0670000000014,2019-12-10 16:22:28.341140,2019-12-10 16:22:29.849481,13,2.6406374166666664,jj,Processing_Speed
RIGHT,500.000001,,,Time_Max_Exceeded,1500.0657000000003,2019-12-10 16:22:30.356147,2019-12-10 16:22:31.864123,14,2.6406374166666664,jj,Processing_Speed
RIGHT,950.0000019,,,Time_Max_Exceeded,1500.0721000000042,2019-12-10 16:22:32.821760,2019-12-10 16:22:34.329355,15,2.6406374166666664,jj,Processing_Speed
LEFT,816.6666683,,,Time_Max_Exceeded,1500.072799999998,2019-12-10 16:22:35.153047,2019-12-10 16:22:36.660583,16,2.6406374166666664,jj,Processing_Speed
LEFT,666.6666680000001,,,Time_Max_Exceeded,1500.0667999999991,2019-12-10 16:22:37.333907,2019-12-10 16:22:38.841703,17,2.6406374166666664,jj,Processing_Speed
RIGHT,1016.6666687000001,,,Time_Max_Exceeded,1500.0756999999965,2019-12-10 16:22:39.864396,2019-12-10 16:22:41.372503,18,2.6406374166666664,jj,Processing_Speed
LEFT,1466.6666696,,,Time_Max_Exceeded,1500.0722999999994,2019-12-10 16:22:42.846071,2019-12-10 16:22:44.353435,19,2.6406374166666664,jj,Processing_Speed
RIGHT,566.6666678,,,Time_Max_Exceeded,1500.0732000000028,2019-12-10 16:22:44.926788,2019-12-10 16:22:46.434829,20,2.6406374166666664,jj,Processing_Speed
RIGHT,916.6666685,,,Time_Max_Exceeded,1500.0620999999937,2019-12-10 16:22:47.358076,2019-12-10 16:22:48.865328,21,2.6406374166666664,jj,Processing_Speed
RIGHT,1466.6666696,,,Time_Max_Exceeded,1500.0756000000024,2019-12-10 16:22:50.339367,2019-12-10 16:22:51.846688,22,2.6406374166666664,jj,Processing_Speed
RIGHT,1266.6666692000001,,,Time_Max_Exceeded,1500.0737999999956,2019-12-10 16:22:53.120188,2019-12-10 16:22:54.628471,23,2.6406374166666664,jj,Processing_Speed
RIGHT,1366.6666694,,,Time_Max_Exceeded,1500.0665999999967,2019-12-10 16:22:56.001756,2019-12-10 16:22:57.509375,24,2.6406374166666664,jj,Processing_Speed
LEFT,850.0000017,,,Time_Max_Exceeded,1500.0722999999994,2019-12-10 16:22:58.366887,2019-12-10 16:22:59.874205,25,2.6406374166666664,jj,Processing_Speed
RIGHT,1400.0000028,,,Time_Max_Exceeded,1500.076799999988,2019-12-10 16:23:01.283429,2019-12-10 16:23:02.791371,26,2.6406374166666664,jj,Processing_Speed
RIGHT,1333.3333360000001,,,Time_Max_Exceeded,1500.0696000000034,2019-12-10 16:23:04.131147,2019-12-10 16:23:05.638683,27,2.6406374166666664,jj,Processing_Speed
RIGHT,1300.0000026,,,Time_Max_Exceeded,1500.0639000000006,2019-12-10 16:23:06.945692,2019-12-10 16:23:08.452647,28,2.6406374166666664,jj,Processing_Speed
RIGHT,533.3333344,,,Time_Max_Exceeded,1500.070600000001,2019-12-10 16:23:08.993716,2019-12-10 16:23:10.501250,29,2.6406374166666664,jj,Processing_Speed
LEFT,1366.6666694,,,Time_Max_Exceeded,1500.062900000003,2019-12-10 16:23:11.875627,2019-12-10 16:23:13.383688,30,2.6406374166666664,jj,Processing_Speed
LEFT,1183.3333357000001,,,Time_Max_Exceeded,1500.0675999999942,2019-12-10 16:23:14.573649,2019-12-10 16:23:16.080667,31,2.6406374166666664,jj,Processing_Speed
RIGHT,1150.0000023,,,Time_Max_Exceeded,1500.076800000002,2019-12-10 16:23:17.238718,2019-12-10 16:23:18.746629,32,2.6406374166666664,jj,Processing_Speed
LEFT,1300.0000026,,,Time_Max_Exceeded,1500.0643999999993,2019-12-10 16:23:20.052845,2019-12-10 16:23:21.561246,33,2.6406374166666664,jj,Processing_Speed
RIGHT,1216.6666691,,,Time_Max_Exceeded,1500.0795999999923,2019-12-10 16:23:22.783907,2019-12-10 16:23:24.292772,34,2.6406374166666664,jj,Processing_Speed
RIGHT,783.3333349000001,,,Time_Max_Exceeded,1500.0609000000081,2019-12-10 16:23:25.081755,2019-12-10 16:23:26.590534,35,2.6406374166666664,jj,Processing_Speed
RIGHT,1116.6666689,,,Time_Max_Exceeded,1500.0739999999978,2019-12-10 16:23:27.713279,2019-12-10 16:23:29.221478,36,2.6406374166666664,jj,Processing_Speed
LEFT,600.0000012,,,Time_Max_Exceeded,1500.0749000000014,2019-12-10 16:23:29.827729,2019-12-10 16:23:31.335703,37,2.6406374166666664,jj,Processing_Speed
LEFT,533.3333344,,,Time_Max_Exceeded,1500.0779999999877,2019-12-10 16:23:31.875749,2019-12-10 16:23:33.383768,38,2.6406374166666664,jj,Processing_Speed
RIGHT,883.3333351,,,Time_Max_Exceeded,1500.0801999999994,2019-12-10 16:23:34.274609,2019-12-10 16:23:35.781887,39,2.6406374166666664,jj,Processing_Speed
LEFT,1116.6666689,,,Time_Max_Exceeded,1500.0845,2019-12-10 16:23:36.906058,2019-12-10 16:23:38.413442,40,2.6406374166666664,jj,Processing_Speed
LEFT,1266.6666692000001,,,Time_Max_Exceeded,1500.0678999999764,2019-12-10 16:23:39.687213,2019-12-10 16:23:41.195079,41,2.6406374166666664,jj,Processing_Speed
RIGHT,816.6666683,,,Time_Max_Exceeded,1500.0704999999925,2019-12-10 16:23:42.017809,2019-12-10 16:23:43.526494,42,2.6406374166666664,jj,Processing_Speed
LEFT,1333.3333360000001,,,Time_Max_Exceeded,1500.0773000000152,2019-12-10 16:23:44.865861,2019-12-10 16:23:46.373667,43,2.6406374166666664,jj,Processing_Speed
LEFT,1216.6666691,,,Time_Max_Exceeded,1500.0665000000026,2019-12-10 16:23:47.596926,2019-12-10 16:23:49.105739,44,2.6406374166666664,jj,Processing_Speed
RIGHT,733.3333348,,,Time_Max_Exceeded,1500.0761000000011,2019-12-10 16:23:49.845830,2019-12-10 16:23:51.353435,45,2.6406374166666664,jj,Processing_Speed
LEFT,700.0000014,,,Time_Max_Exceeded,1500.0804000000016,2019-12-10 16:23:52.062070,2019-12-10 16:23:53.569955,46,2.6406374166666664,jj,Processing_Speed
RIGHT,633.3333346000001,,,Time_Max_Exceeded,1500.078799999983,2019-12-10 16:23:54.209604,2019-12-10 16:23:55.717655,47,2.6406374166666664,jj,Processing_Speed
LEFT,1083.3333355,,,Time_Max_Exceeded,1500.105700000006,2019-12-10 16:23:56.809109,2019-12-10 16:23:58.317472,48,2.6406374166666664,jj,Processing_Speed
LEFT,950.0000019,,,Time_Max_Exceeded,1500.0879000000111,2019-12-10 16:23:59.273666,2019-12-10 16:24:00.786075,49,2.6406374166666664,jj,Processing_Speed
LEFT,733.3333348,,,Time_Max_Exceeded,1500.073900000018,2019-12-10 16:24:01.527534,2019-12-10 16:24:03.034728,50,2.6406374166666664,jj,Processing_Speed
RIGHT,1050.0000021,,,Time_Max_Exceeded,1500.0711000000138,2019-12-10 16:24:04.091812,2019-12-10 16:24:05.600301,51,2.6406374166666664,jj,Processing_Speed
LEFT,916.6666685,,,Time_Max_Exceeded,1500.0684999999976,2019-12-10 16:24:06.524656,2019-12-10 16:24:08.032680,52,2.6406374166666664,jj,Processing_Speed
LEFT,1150.0000023,,,Time_Max_Exceeded,1500.0736000000074,2019-12-10 16:24:09.190300,2019-12-10 16:24:10.698839,53,2.6406374166666664,jj,Processing_Speed
RIGHT,983.3333353,,,Time_Max_Exceeded,1500.0756000000024,2019-12-10 16:24:11.690208,2019-12-10 16:24:13.198590,54,2.6406374166666664,jj,Processing_Speed
RIGHT,666.6666680000001,,,Time_Max_Exceeded,1500.0773999999808,2019-12-10 16:24:13.871765,2019-12-10 16:24:15.380304,55,2.6406374166666664,jj,Processing_Speed
RIGHT,1183.3333357000001,,,Time_Max_Exceeded,1500.0941000000125,2019-12-10 16:24:16.570860,2019-12-10 16:24:18.078507,56,2.6406374166666664,jj,Processing_Speed
LEFT,1433.3333362,,,Time_Max_Exceeded,1500.0623999999902,2019-12-10 16:24:19.518968,2019-12-10 16:24:21.027401,57,2.6406374166666664,jj,Processing_Speed
LEFT,883.3333351,,,Time_Max_Exceeded,1500.0717000000066,2019-12-10 16:24:21.917988,2019-12-10 16:24:23.426003,58,2.6406374166666664,jj,Processing_Speed
LEFT,500.000001,,,Time_Max_Exceeded,1500.0716999999781,2019-12-10 16:24:23.933824,2019-12-10 16:24:25.441685,59,2.6406374166666664,jj,Processing_Speed
LEFT,566.6666678,,,Time_Max_Exceeded,1500.072700000004,2019-12-10 16:24:26.015899,2019-12-10 16:24:27.523666,60,2.6406374166666664,jj,Processing_Speed
