Stimulus_Side,ITI,Previous_Response,Previous_RT,Response,RT,Trial_Time_Onset,Trial_Time_End,Trial_Order,Duration,Participant,Task
LEFT,1116.6666689,,,DOWN,400.2930000000049,2019-12-10 13:05:02.214397,2019-12-10 13:05:02.851173,1,2.217677516666667,S191210,Processing_Speed
RIGHT,816.6666683,,,DOWN,246.6196000000025,2019-12-10 13:05:03.687859,2019-12-10 13:05:04.157427,2,2.217677516666667,S191210,Processing_Speed
LEFT,950.0000019,,,DOWN,236.9056999999941,2019-12-10 13:05:05.130016,2019-12-10 13:05:05.588868,3,2.217677516666667,S191210,Processing_Speed
LEFT,1183.3333357000001,,,DOWN,260.177399999975,2019-12-10 13:05:06.794781,2019-12-10 13:05:07.279995,4,2.217677516666667,S191210,Processing_Speed
RIGHT,1300.0000026,,,DOWN,237.9765999999961,2019-12-10 13:05:08.602023,2019-12-10 13:05:09.062182,5,2.217677516666667,S191210,Processing_Speed
RIGHT,533.3333344,,,DOWN,389.05189999999834,2019-12-10 13:05:09.618007,2019-12-10 13:05:10.228895,6,2.217677516666667,S191210,Processing_Speed
LEFT,1016.6666687000001,,,DOWN,276.0389000000032,2019-12-10 13:05:11.267041,2019-12-10 13:05:11.765887,7,2.217677516666667,S191210,Processing_Speed
LEFT,600.0000012,,,DOWN,257.996200000008,2019-12-10 13:05:12.388890,2019-12-10 13:05:12.862747,8,2.217677516666667,S191210,Processing_Speed
LEFT,733.3333348,,,DOWN,235.85710000000404,2019-12-10 13:05:13.619214,2019-12-10 13:05:14.078524,9,2.217677516666667,S191210,Processing_Speed
LEFT,1300.0000026,,,DOWN,302.1671999999853,2019-12-10 13:05:15.400816,2019-12-10 13:05:15.918164,10,2.217677516666667,S191210,Processing_Speed
RIGHT,850.0000017,,,DOWN,236.12090000000308,2019-12-10 13:05:16.787261,2019-12-10 13:05:17.247950,11,2.217677516666667,S191210,Processing_Speed
LEFT,1266.6666692000001,,,DOWN,269.72269999998844,2019-12-10 13:05:18.536931,2019-12-10 13:05:19.028918,12,2.217677516666667,S191210,Processing_Speed
LEFT,1366.6666694,,,DOWN,278.1014999999911,2019-12-10 13:05:20.417173,2019-12-10 13:05:20.916897,13,2.217677516666667,S191210,Processing_Speed
RIGHT,983.3333353,,,DOWN,246.53180000001385,2019-12-10 13:05:21.920164,2019-12-10 13:05:22.388207,14,2.217677516666667,S191210,Processing_Speed
LEFT,633.3333346000001,,,DOWN,370.48970000000736,2019-12-10 13:05:23.044607,2019-12-10 13:05:23.638095,15,2.217677516666667,S191210,Processing_Speed
LEFT,850.0000017,,,DOWN,284.57299999999464,2019-12-10 13:05:24.506099,2019-12-10 13:05:25.015167,16,2.217677516666667,S191210,Processing_Speed
RIGHT,1183.3333357000001,,,DOWN,290.50280000001294,2019-12-10 13:05:26.219990,2019-12-10 13:05:26.734130,17,2.217677516666667,S191210,Processing_Speed
LEFT,666.6666680000001,,,DOWN,320.56890000001204,2019-12-10 13:05:27.422758,2019-12-10 13:05:27.966960,18,2.217677516666667,S191210,Processing_Speed
LEFT,1150.0000023,,,DOWN,284.9696000000108,2019-12-10 13:05:29.138082,2019-12-10 13:05:29.645772,19,2.217677516666667,S191210,Processing_Speed
LEFT,816.6666683,,,DOWN,209.26059999999325,2019-12-10 13:05:30.485183,2019-12-10 13:05:30.920130,20,2.217677516666667,S191210,Processing_Speed
RIGHT,783.3333349000001,,,DOWN,193.3166999999969,2019-12-10 13:05:31.726049,2019-12-10 13:05:32.143627,21,2.217677516666667,S191210,Processing_Speed
RIGHT,1333.3333360000001,,,DOWN,259.31249999999295,2019-12-10 13:05:33.499762,2019-12-10 13:05:33.983330,22,2.217677516666667,S191210,Processing_Speed
RIGHT,500.000001,,,DOWN,341.8688000000145,2019-12-10 13:05:34.504964,2019-12-10 13:05:35.070606,23,2.217677516666667,S191210,Processing_Speed
LEFT,533.3333344,,,DOWN,324.65740000000665,2019-12-10 13:05:35.625833,2019-12-10 13:05:36.176982,24,2.217677516666667,S191210,Processing_Speed
RIGHT,1266.6666692000001,,,DOWN,220.61879999998268,2019-12-10 13:05:37.465835,2019-12-10 13:05:37.910260,25,2.217677516666667,S191210,Processing_Speed
LEFT,500.000001,,,DOWN,275.2834000000064,2019-12-10 13:05:38.427994,2019-12-10 13:05:38.925148,26,2.217677516666667,S191210,Processing_Speed
RIGHT,1216.6666691,,,DOWN,252.33140000000276,2019-12-10 13:05:40.162816,2019-12-10 13:05:40.637066,27,2.217677516666667,S191210,Processing_Speed
RIGHT,1366.6666694,,,DOWN,245.6282999999928,2019-12-10 13:05:42.025307,2019-12-10 13:05:42.492790,28,2.217677516666667,S191210,Processing_Speed
RIGHT,1016.6666687000001,,,DOWN,360.20679999998606,2019-12-10 13:05:43.526525,2019-12-10 13:05:44.110579,29,2.217677516666667,S191210,Processing_Speed
RIGHT,1466.6666696,,,DOWN,248.5126000000264,2019-12-10 13:05:45.599902,2019-12-10 13:05:46.070932,30,2.217677516666667,S191210,Processing_Speed
LEFT,1050.0000021,,,DOWN,272.3985000000084,2019-12-10 13:05:47.142558,2019-12-10 13:05:47.637418,31,2.217677516666667,S191210,Processing_Speed
RIGHT,700.0000014,,,DOWN,230.5690000000027,2019-12-10 13:05:48.359991,2019-12-10 13:05:48.815198,32,2.217677516666667,S191210,Processing_Speed
LEFT,916.6666685,,,DOWN,235.68269999998392,2019-12-10 13:05:49.754995,2019-12-10 13:05:50.214657,33,2.217677516666667,S191210,Processing_Speed
LEFT,700.0000014,,,DOWN,277.9019000000176,2019-12-10 13:05:50.936866,2019-12-10 13:05:51.439618,34,2.217677516666667,S191210,Processing_Speed
RIGHT,883.3333351,,,DOWN,230.64400000001228,2019-12-10 13:05:52.343722,2019-12-10 13:05:52.798881,35,2.217677516666667,S191210,Processing_Speed
LEFT,1083.3333355,,,DOWN,239.13799999999696,2019-12-10 13:05:53.903897,2019-12-10 13:05:54.364872,36,2.217677516666667,S191210,Processing_Speed
RIGHT,950.0000019,,,DOWN,230.3026000000159,2019-12-10 13:05:55.336961,2019-12-10 13:05:55.792013,37,2.217677516666667,S191210,Processing_Speed
RIGHT,916.6666685,,,DOWN,309.1782000000194,2019-12-10 13:05:56.729378,2019-12-10 13:05:57.264038,38,2.217677516666667,S191210,Processing_Speed
RIGHT,1433.3333362,,,DOWN,303.9844000000187,2019-12-10 13:05:58.718789,2019-12-10 13:05:59.246484,39,2.217677516666667,S191210,Processing_Speed
RIGHT,733.3333348,,,DOWN,258.7347000000193,2019-12-10 13:06:00.004210,2019-12-10 13:06:00.486554,40,2.217677516666667,S191210,Processing_Speed
RIGHT,1500.000003,,,DOWN,318.27880000000164,2019-12-10 13:06:02.009173,2019-12-10 13:06:02.549933,41,2.217677516666667,S191210,Processing_Speed
RIGHT,600.0000012,,,DOWN,339.60890000000177,2019-12-10 13:06:03.171333,2019-12-10 13:06:03.732564,42,2.217677516666667,S191210,Processing_Speed
RIGHT,1150.0000023,,,DOWN,270.504399999993,2019-12-10 13:06:04.903796,2019-12-10 13:06:05.392325,43,2.217677516666667,S191210,Processing_Speed
LEFT,983.3333353,,,DOWN,240.92880000000605,2019-12-10 13:06:06.398165,2019-12-10 13:06:06.860771,44,2.217677516666667,S191210,Processing_Speed
RIGHT,633.3333346000001,,,DOWN,266.3643999999863,2019-12-10 13:06:07.516727,2019-12-10 13:06:08.004905,45,2.217677516666667,S191210,Processing_Speed
LEFT,1433.3333362,,,DOWN,291.9371000000126,2019-12-10 13:06:09.458804,2019-12-10 13:06:09.972745,46,2.217677516666667,S191210,Processing_Speed
LEFT,566.6666678,,,DOWN,365.95879999998715,2019-12-10 13:06:10.560831,2019-12-10 13:06:11.150273,47,2.217677516666667,S191210,Processing_Speed
RIGHT,1083.3333355,,,DOWN,279.065299999985,2019-12-10 13:06:12.255754,2019-12-10 13:06:12.759565,48,2.217677516666667,S191210,Processing_Speed
LEFT,883.3333351,,,DOWN,245.5006999999796,2019-12-10 13:06:13.665498,2019-12-10 13:06:14.133859,49,2.217677516666667,S191210,Processing_Speed
RIGHT,666.6666680000001,,,DOWN,247.19319999999811,2019-12-10 13:06:14.823819,2019-12-10 13:06:15.292745,50,2.217677516666667,S191210,Processing_Speed
RIGHT,1116.6666689,,,DOWN,328.0910000000006,2019-12-10 13:06:16.430943,2019-12-10 13:06:16.980309,51,2.217677516666667,S191210,Processing_Speed
LEFT,1500.000003,,,DOWN,241.05659999997897,2019-12-10 13:06:18.502007,2019-12-10 13:06:18.964932,52,2.217677516666667,S191210,Processing_Speed
LEFT,1216.6666691,,,DOWN,267.4276999999847,2019-12-10 13:06:20.203263,2019-12-10 13:06:20.693966,53,2.217677516666667,S191210,Processing_Speed
LEFT,1333.3333360000001,,,DOWN,277.0930000000078,2019-12-10 13:06:22.049987,2019-12-10 13:06:22.548693,54,2.217677516666667,S191210,Processing_Speed
LEFT,783.3333349000001,,,DOWN,273.28489999999306,2019-12-10 13:06:23.357968,2019-12-10 13:06:23.854303,55,2.217677516666667,S191210,Processing_Speed
LEFT,1400.0000028,,,DOWN,282.74820000001455,2019-12-10 13:06:25.275892,2019-12-10 13:06:25.780892,56,2.217677516666667,S191210,Processing_Speed
RIGHT,1400.0000028,,,DOWN,244.07080000000292,2019-12-10 13:06:27.202868,2019-12-10 13:06:27.672000,57,2.217677516666667,S191210,Processing_Speed
LEFT,1466.6666696,,,DOWN,238.0689000000018,2019-12-10 13:06:29.161143,2019-12-10 13:06:29.621841,58,2.217677516666667,S191210,Processing_Speed
RIGHT,566.6666678,,,DOWN,292.9924000000028,2019-12-10 13:06:30.210047,2019-12-10 13:06:30.726321,59,2.217677516666667,S191210,Processing_Speed
RIGHT,1050.0000021,,,DOWN,231.8935000000124,2019-12-10 13:06:31.798783,2019-12-10 13:06:32.255990,60,2.217677516666667,S191210,Processing_Speed
