Conflict,Stimulus_Side,ITI,Previous_Response,Previous_RT,Cue_Response,Cue_Response_RT,Response,RT,Trial_Time_Onset,Trial_Time_End,Trial_Order,Duration,Participant,Task
False,RIGHT,783.3333349000001,,,,,RIGHT,507.3922000000266,2019-12-10 13:15:18.483596,2019-12-10 13:15:19.212788,1,5.413876283333334,S191210,Conflict_Resolution
True,RIGHT,733.3333348,,,,,LEFT,478.77710000000206,2019-12-10 13:15:19.991968,2019-12-10 13:15:20.692867,2,5.413876283333334,S191210,Conflict_Resolution
False,LEFT,766.6666682,,,,,LEFT,531.429600000024,2019-12-10 13:15:21.507811,2019-12-10 13:15:22.260807,3,5.413876283333334,S191210,Conflict_Resolution
False,LEFT,1116.6666689,,,,,LEFT,445.1804999999922,2019-12-10 13:15:23.425806,2019-12-10 13:15:24.092616,4,5.413876283333334,S191210,Conflict_Resolution
False,LEFT,1366.6666694,,,,,LEFT,482.23250000000917,2019-12-10 13:15:25.508569,2019-12-10 13:15:26.212337,5,5.413876283333334,S191210,Conflict_Resolution
False,LEFT,1500.000003,,,,,LEFT,454.61549999993167,2019-12-10 13:15:27.760127,2019-12-10 13:15:28.437065,6,5.413876283333334,S191210,Conflict_Resolution
True,LEFT,850.0000017,,,,,RIGHT,761.8330999999898,2019-12-10 13:15:29.325013,2019-12-10 13:15:30.309213,7,5.413876283333334,S191210,Conflict_Resolution
False,LEFT,1166.666669,,,,,LEFT,532.284900000036,2019-12-10 13:15:31.522465,2019-12-10 13:15:32.277733,8,5.413876283333334,S191210,Conflict_Resolution
False,LEFT,716.6666681,,,,,LEFT,426.39280000003055,2019-12-10 13:15:33.044781,2019-12-10 13:15:33.692402,9,5.413876283333334,S191210,Conflict_Resolution
True,RIGHT,1433.3333362,,,,,RIGHT,952.3103000000219,2019-12-10 13:15:35.159140,2019-12-10 13:15:36.333179,10,5.413876283333334,S191210,Conflict_Resolution
True,LEFT,716.6666681,,,,,LEFT,651.0423999999375,2019-12-10 13:15:37.099468,2019-12-10 13:15:37.972280,11,5.413876283333334,S191210,Conflict_Resolution
True,RIGHT,1316.6666693,,,,,RIGHT,653.8970999999947,2019-12-10 13:15:39.336816,2019-12-10 13:15:40.212209,12,5.413876283333334,S191210,Conflict_Resolution
False,RIGHT,1316.6666693,,,,,RIGHT,446.42989999999827,2019-12-10 13:15:41.575965,2019-12-10 13:15:42.244713,13,5.413876283333334,S191210,Conflict_Resolution
True,LEFT,1400.0000028,,,,,LEFT,754.8166999999921,2019-12-10 13:15:43.692374,2019-12-10 13:15:44.670003,14,5.413876283333334,S191210,Conflict_Resolution
False,RIGHT,750.0000015,,,,,RIGHT,491.52959999992163,2019-12-10 13:15:45.467526,2019-12-10 13:15:46.181653,15,5.413876283333334,S191210,Conflict_Resolution
True,RIGHT,1183.3333357000001,,,,,RIGHT,665.9800999999561,2019-12-10 13:15:47.412579,2019-12-10 13:15:48.300851,16,5.413876283333334,S191210,Conflict_Resolution
True,RIGHT,750.0000015,,,,,RIGHT,669.8449000000437,2019-12-10 13:15:49.097052,2019-12-10 13:15:49.989010,17,5.413876283333334,S191210,Conflict_Resolution
True,RIGHT,683.3333347,,,,,RIGHT,604.4603000000279,2019-12-10 13:15:50.721854,2019-12-10 13:15:51.548759,18,5.413876283333334,S191210,Conflict_Resolution
True,LEFT,1000.000002,,,,,LEFT,563.8022000000547,2019-12-10 13:15:52.595518,2019-12-10 13:15:53.381054,19,5.413876283333334,S191210,Conflict_Resolution
True,RIGHT,650.0000013,,,,,RIGHT,484.0401000000156,2019-12-10 13:15:54.082858,2019-12-10 13:15:54.790250,20,5.413876283333334,S191210,Conflict_Resolution
False,RIGHT,1483.3333363,,,,,RIGHT,445.6778999999642,2019-12-10 13:15:56.321329,2019-12-10 13:15:56.989950,21,5.413876283333334,S191210,Conflict_Resolution
True,LEFT,1450.0000029,,,,,LEFT,520.1643999999987,2019-12-10 13:15:58.486621,2019-12-10 13:15:59.231051,22,5.413876283333334,S191210,Conflict_Resolution
True,LEFT,633.3333346000001,,,,,LEFT,719.9625000000651,2019-12-10 13:15:59.910997,2019-12-10 13:16:00.854058,23,5.413876283333334,S191210,Conflict_Resolution
False,LEFT,1450.0000029,,,,,LEFT,823.1154999999717,2019-12-10 13:16:02.351780,2019-12-10 13:16:03.397532,24,5.413876283333334,S191210,Conflict_Resolution
True,RIGHT,950.0000019,,,,,RIGHT,592.6724000000831,2019-12-10 13:16:04.398154,2019-12-10 13:16:05.212929,25,5.413876283333334,S191210,Conflict_Resolution
True,RIGHT,500.000001,,,,,RIGHT,635.5545999999777,2019-12-10 13:16:05.763091,2019-12-10 13:16:06.622082,26,5.413876283333334,S191210,Conflict_Resolution
True,LEFT,1016.6666687000001,,,,,LEFT,537.5902999999198,2019-12-10 13:16:07.684990,2019-12-10 13:16:08.445774,27,5.413876283333334,S191210,Conflict_Resolution
False,RIGHT,700.0000014,,,,,RIGHT,384.8423999999113,2019-12-10 13:16:09.198287,2019-12-10 13:16:09.806492,28,5.413876283333334,S191210,Conflict_Resolution
True,LEFT,583.3333345,,,,,LEFT,452.5241000000051,2019-12-10 13:16:10.442880,2019-12-10 13:16:11.119254,29,5.413876283333334,S191210,Conflict_Resolution
True,LEFT,733.3333348,,,,,LEFT,510.5016999999634,2019-12-10 13:16:11.904172,2019-12-10 13:16:12.637908,30,5.413876283333334,S191210,Conflict_Resolution
True,RIGHT,1083.3333355,,,,,RIGHT,466.5930999999546,2019-12-10 13:16:13.771910,2019-12-10 13:16:14.462584,31,5.413876283333334,S191210,Conflict_Resolution
True,LEFT,950.0000019,,,,,LEFT,522.5188000000571,2019-12-10 13:16:15.460828,2019-12-10 13:16:16.206816,32,5.413876283333334,S191210,Conflict_Resolution
True,RIGHT,1483.3333363,,,,,RIGHT,508.23079999997844,2019-12-10 13:16:17.738976,2019-12-10 13:16:18.468260,33,5.413876283333334,S191210,Conflict_Resolution
True,RIGHT,1216.6666691,,,,,RIGHT,555.0799000000097,2019-12-10 13:16:19.731939,2019-12-10 13:16:20.510044,34,5.413876283333334,S191210,Conflict_Resolution
False,LEFT,566.6666678,,,,,LEFT,411.2372999999252,2019-12-10 13:16:21.123332,2019-12-10 13:16:21.756932,35,5.413876283333334,S191210,Conflict_Resolution
False,RIGHT,650.0000013,,,,,RIGHT,368.95130000004883,2019-12-10 13:16:22.454023,2019-12-10 13:16:23.045769,36,5.413876283333334,S191210,Conflict_Resolution
True,LEFT,1216.6666691,,,,,LEFT,435.9233000000131,2019-12-10 13:16:24.314936,2019-12-10 13:16:24.973066,37,5.413876283333334,S191210,Conflict_Resolution
True,LEFT,1366.6666694,,,,,LEFT,495.1803999999811,2019-12-10 13:16:26.391876,2019-12-10 13:16:27.105908,38,5.413876283333334,S191210,Conflict_Resolution
True,LEFT,1316.6666693,,,,,LEFT,456.22400000002017,2019-12-10 13:16:28.471124,2019-12-10 13:16:29.148199,39,5.413876283333334,S191210,Conflict_Resolution
False,LEFT,783.3333349000001,,,,,LEFT,348.07660000001306,2019-12-10 13:16:29.970956,2019-12-10 13:16:30.540386,40,5.413876283333334,S191210,Conflict_Resolution
True,RIGHT,1416.6666695000001,,,,,RIGHT,419.2496000000574,2019-12-10 13:16:31.996154,2019-12-10 13:16:32.638004,41,5.413876283333334,S191210,Conflict_Resolution
False,RIGHT,883.3333351,,,,,RIGHT,612.110199999961,2019-12-10 13:16:33.570948,2019-12-10 13:16:34.404583,42,5.413876283333334,S191210,Conflict_Resolution
True,LEFT,766.6666682,,,,,LEFT,457.40780000005543,2019-12-10 13:16:35.222038,2019-12-10 13:16:35.904965,43,5.413876283333334,S191210,Conflict_Resolution
True,LEFT,1200.0000024,,,,,LEFT,482.9002000000173,2019-12-10 13:16:37.155912,2019-12-10 13:16:37.860774,44,5.413876283333334,S191210,Conflict_Resolution
False,LEFT,616.6666679,,,,,LEFT,394.1586000000825,2019-12-10 13:16:38.525196,2019-12-10 13:16:39.142121,45,5.413876283333334,S191210,Conflict_Resolution
False,LEFT,1466.6666696,,,,,LEFT,406.91309999999703,2019-12-10 13:16:40.655891,2019-12-10 13:16:41.285073,46,5.413876283333334,S191210,Conflict_Resolution
True,LEFT,1300.0000026,,,,,LEFT,542.1014999999443,2019-12-10 13:16:42.632778,2019-12-10 13:16:43.396158,47,5.413876283333334,S191210,Conflict_Resolution
False,LEFT,816.6666683,,,,,LEFT,367.793200000051,2019-12-10 13:16:44.263136,2019-12-10 13:16:44.855013,48,5.413876283333334,S191210,Conflict_Resolution
False,RIGHT,1333.3333360000001,,,,,RIGHT,434.2379999999366,2019-12-10 13:16:46.236913,2019-12-10 13:16:46.892786,49,5.413876283333334,S191210,Conflict_Resolution
True,LEFT,1166.666669,,,,,LEFT,408.91499999997905,2019-12-10 13:16:48.110122,2019-12-10 13:16:48.742779,50,5.413876283333334,S191210,Conflict_Resolution
False,RIGHT,583.3333345,,,,,RIGHT,487.26479999993444,2019-12-10 13:16:49.375018,2019-12-10 13:16:50.084358,51,5.413876283333334,S191210,Conflict_Resolution
True,RIGHT,1266.6666692000001,,,,,RIGHT,519.2544999999882,2019-12-10 13:16:51.399899,2019-12-10 13:16:52.140416,52,5.413876283333334,S191210,Conflict_Resolution
False,RIGHT,1233.3333358,,,,,RIGHT,359.2540000000781,2019-12-10 13:16:53.423914,2019-12-10 13:16:54.006060,53,5.413876283333334,S191210,Conflict_Resolution
True,RIGHT,850.0000017,,,,,RIGHT,580.5185000000392,2019-12-10 13:16:54.906203,2019-12-10 13:16:55.710828,54,5.413876283333334,S191210,Conflict_Resolution
False,LEFT,1350.0000027,,,,,LEFT,410.0378999999066,2019-12-10 13:16:57.108766,2019-12-10 13:16:57.740415,55,5.413876283333334,S191210,Conflict_Resolution
True,LEFT,900.0000018000001,,,,,LEFT,511.12799999998515,2019-12-10 13:16:58.687914,2019-12-10 13:16:59.420805,56,5.413876283333334,S191210,Conflict_Resolution
True,LEFT,516.6666677000001,,,,,LEFT,458.67539999994733,2019-12-10 13:16:59.988439,2019-12-10 13:17:00.671906,57,5.413876283333334,S191210,Conflict_Resolution
False,LEFT,1050.0000021,,,,,LEFT,443.9934000000676,2019-12-10 13:17:01.774029,2019-12-10 13:17:02.443118,58,5.413876283333334,S191210,Conflict_Resolution
False,LEFT,666.6666680000001,,,,,LEFT,381.7833000000519,2019-12-10 13:17:03.160868,2019-12-10 13:17:03.766187,59,5.413876283333334,S191210,Conflict_Resolution
False,LEFT,916.6666685,,,,,LEFT,353.6392999999407,2019-12-10 13:17:04.734303,2019-12-10 13:17:05.312948,60,5.413876283333334,S191210,Conflict_Resolution
False,RIGHT,933.3333352,,,,,RIGHT,422.4525000000767,2019-12-10 13:17:06.297040,2019-12-10 13:17:06.942027,61,5.413876283333334,S191210,Conflict_Resolution
False,LEFT,733.3333348,,,,,LEFT,407.3839999999791,2019-12-10 13:17:07.726905,2019-12-10 13:17:08.358217,62,5.413876283333334,S191210,Conflict_Resolution
True,LEFT,1250.0000025,,,,,LEFT,471.28010000005816,2019-12-10 13:17:09.655235,2019-12-10 13:17:10.348933,63,5.413876283333334,S191210,Conflict_Resolution
True,RIGHT,1000.000002,,,,,RIGHT,610.0781999999754,2019-12-10 13:17:11.397210,2019-12-10 13:17:12.230858,64,5.413876283333334,S191210,Conflict_Resolution
False,LEFT,533.3333344,,,,,LEFT,389.6236000000499,2019-12-10 13:17:12.801252,2019-12-10 13:17:13.414180,65,5.413876283333334,S191210,Conflict_Resolution
False,RIGHT,533.3333344,,,,,RIGHT,344.5626999999831,2019-12-10 13:17:13.998074,2019-12-10 13:17:14.567974,66,5.413876283333334,S191210,Conflict_Resolution
True,LEFT,1350.0000027,,,,,LEFT,466.05399999998554,2019-12-10 13:17:15.964782,2019-12-10 13:17:16.652656,67,5.413876283333334,S191210,Conflict_Resolution
False,LEFT,683.3333347,,,,,LEFT,331.8903000000546,2019-12-10 13:17:17.386758,2019-12-10 13:17:17.942928,68,5.413876283333334,S191210,Conflict_Resolution
False,LEFT,1266.6666692000001,,,,,LEFT,399.58999999998923,2019-12-10 13:17:19.263149,2019-12-10 13:17:19.890727,69,5.413876283333334,S191210,Conflict_Resolution
True,RIGHT,1366.6666694,,,,,RIGHT,477.08989999989626,2019-12-10 13:17:21.305739,2019-12-10 13:17:22.004418,70,5.413876283333334,S191210,Conflict_Resolution
True,LEFT,783.3333349000001,,,,,LEFT,401.58790000009503,2019-12-10 13:17:22.836920,2019-12-10 13:17:23.463598,71,5.413876283333334,S191210,Conflict_Resolution
False,RIGHT,1416.6666695000001,,,,,RIGHT,452.91050000002997,2019-12-10 13:17:24.930367,2019-12-10 13:17:25.606465,72,5.413876283333334,S191210,Conflict_Resolution
False,RIGHT,1000.000002,,,,,RIGHT,408.91659999999774,2019-12-10 13:17:26.654236,2019-12-10 13:17:27.284209,73,5.413876283333334,S191210,Conflict_Resolution
False,RIGHT,1366.6666694,,,,,RIGHT,365.5768999999509,2019-12-10 13:17:28.697198,2019-12-10 13:17:29.286108,74,5.413876283333334,S191210,Conflict_Resolution
False,RIGHT,950.0000019,,,,,RIGHT,284.39989999992576,2019-12-10 13:17:30.283048,2019-12-10 13:17:30.788591,75,5.413876283333334,S191210,Conflict_Resolution
False,RIGHT,900.0000018000001,,,,,RIGHT,295.3301999999667,2019-12-10 13:17:31.735013,2019-12-10 13:17:32.254292,76,5.413876283333334,S191210,Conflict_Resolution
False,RIGHT,800.0000016,,,,,RIGHT,280.3503999999748,2019-12-10 13:17:33.102743,2019-12-10 13:17:33.604796,77,5.413876283333334,S191210,Conflict_Resolution
False,RIGHT,1183.3333357000001,,,,,RIGHT,254.0672000000086,2019-12-10 13:17:34.835710,2019-12-10 13:17:35.311075,78,5.413876283333334,S191210,Conflict_Resolution
True,RIGHT,933.3333352,,,,,RIGHT,275.8519999999862,2019-12-10 13:17:36.290832,2019-12-10 13:17:36.789149,79,5.413876283333334,S191210,Conflict_Resolution
True,LEFT,1500.000003,,,,,LEFT,454.4325999999046,2019-12-10 13:17:38.336804,2019-12-10 13:17:39.012907,80,5.413876283333334,S191210,Conflict_Resolution
True,RIGHT,900.0000018000001,,,,,RIGHT,591.1352000000534,2019-12-10 13:17:39.951823,2019-12-10 13:17:40.766034,81,5.413876283333334,S191210,Conflict_Resolution
True,RIGHT,983.3333353,,,,,RIGHT,577.7585000000727,2019-12-10 13:17:41.797765,2019-12-10 13:17:42.596670,82,5.413876283333334,S191210,Conflict_Resolution
True,LEFT,1100.0000022,,,,,LEFT,581.5536999999722,2019-12-10 13:17:43.744910,2019-12-10 13:17:44.550166,83,5.413876283333334,S191210,Conflict_Resolution
False,LEFT,583.3333345,,,,,LEFT,468.879300000026,2019-12-10 13:17:45.185755,2019-12-10 13:17:45.878216,84,5.413876283333334,S191210,Conflict_Resolution
True,RIGHT,1333.3333360000001,,,,,RIGHT,506.8684000000303,2019-12-10 13:17:47.260324,2019-12-10 13:17:47.988995,85,5.413876283333334,S191210,Conflict_Resolution
False,LEFT,900.0000018000001,,,,,LEFT,396.683199999984,2019-12-10 13:17:48.938181,2019-12-10 13:17:49.559171,86,5.413876283333334,S191210,Conflict_Resolution
False,LEFT,1066.6666688,,,,,LEFT,434.75809999995363,2019-12-10 13:17:50.676719,2019-12-10 13:17:51.334749,87,5.413876283333334,S191210,Conflict_Resolution
True,RIGHT,700.0000014,,,,,RIGHT,480.81859999990684,2019-12-10 13:17:52.086044,2019-12-10 13:17:52.790426,88,5.413876283333334,S191210,Conflict_Resolution
False,RIGHT,1050.0000021,,,,,RIGHT,410.86889999996856,2019-12-10 13:17:53.891964,2019-12-10 13:17:54.526949,89,5.413876283333334,S191210,Conflict_Resolution
True,RIGHT,633.3333346000001,,,,,RIGHT,515.1143999999022,2019-12-10 13:17:55.212227,2019-12-10 13:17:55.950724,90,5.413876283333334,S191210,Conflict_Resolution
False,LEFT,1016.6666687000001,,,,,LEFT,451.1097999999265,2019-12-10 13:17:57.019863,2019-12-10 13:17:57.694869,91,5.413876283333334,S191210,Conflict_Resolution
True,LEFT,666.6666680000001,,,,,RIGHT,427.28460000000723,2019-12-10 13:17:58.412176,2019-12-10 13:17:59.063658,92,5.413876283333334,S191210,Conflict_Resolution
False,LEFT,866.6666684,,,,,LEFT,416.89850000000206,2019-12-10 13:17:59.981742,2019-12-10 13:18:00.622987,93,5.413876283333334,S191210,Conflict_Resolution
False,LEFT,633.3333346000001,,,,,LEFT,431.74039999996694,2019-12-10 13:18:01.295021,2019-12-10 13:18:01.950864,94,5.413876283333334,S191210,Conflict_Resolution
True,LEFT,1150.0000023,,,,,LEFT,467.47449999998025,2019-12-10 13:18:03.148050,2019-12-10 13:18:03.837655,95,5.413876283333334,S191210,Conflict_Resolution
True,LEFT,616.6666679,,,,,LEFT,471.5990000000829,2019-12-10 13:18:04.503018,2019-12-10 13:18:05.197828,96,5.413876283333334,S191210,Conflict_Resolution
False,RIGHT,1083.3333355,,,,,RIGHT,431.10380000007353,2019-12-10 13:18:06.327826,2019-12-10 13:18:06.980873,97,5.413876283333334,S191210,Conflict_Resolution
True,LEFT,1466.6666696,,,,,LEFT,472.00199999997494,2019-12-10 13:18:08.494873,2019-12-10 13:18:09.188187,98,5.413876283333334,S191210,Conflict_Resolution
False,RIGHT,733.3333348,,,,,RIGHT,406.91050000009454,2019-12-10 13:18:09.968041,2019-12-10 13:18:10.597543,99,5.413876283333334,S191210,Conflict_Resolution
True,LEFT,566.6666678,,,,,LEFT,431.0565000000679,2019-12-10 13:18:11.215072,2019-12-10 13:18:11.857939,100,5.413876283333334,S191210,Conflict_Resolution
True,RIGHT,783.3333349000001,,,,,RIGHT,469.57270000007156,2019-12-10 13:18:12.673871,2019-12-10 13:18:13.363062,101,5.413876283333334,S191210,Conflict_Resolution
False,LEFT,1216.6666691,,,,,LEFT,395.6652000000531,2019-12-10 13:18:14.626851,2019-12-10 13:18:15.245456,102,5.413876283333334,S191210,Conflict_Resolution
False,LEFT,516.6666677000001,,,,,LEFT,376.43339999999625,2019-12-10 13:18:15.813893,2019-12-10 13:18:16.412985,103,5.413876283333334,S191210,Conflict_Resolution
False,RIGHT,1383.3333361,,,,,RIGHT,426.99079999999867,2019-12-10 13:18:17.844013,2019-12-10 13:18:18.492965,104,5.413876283333334,S191210,Conflict_Resolution
False,RIGHT,850.0000017,,,,,RIGHT,404.0412000000515,2019-12-10 13:18:19.394968,2019-12-10 13:18:20.023002,105,5.413876283333334,S191210,Conflict_Resolution
False,RIGHT,1266.6666692000001,,,,,RIGHT,393.9407000000301,2019-12-10 13:18:21.341013,2019-12-10 13:18:21.961007,106,5.413876283333334,S191210,Conflict_Resolution
False,RIGHT,683.3333347,,,,,RIGHT,344.0487000000303,2019-12-10 13:18:22.694305,2019-12-10 13:18:23.261993,107,5.413876283333334,S191210,Conflict_Resolution
False,RIGHT,1466.6666696,,,,,RIGHT,406.5700000001016,2019-12-10 13:18:24.775905,2019-12-10 13:18:25.404777,108,5.413876283333334,S191210,Conflict_Resolution
True,RIGHT,883.3333351,,,,,RIGHT,592.219200000045,2019-12-10 13:18:26.334479,2019-12-10 13:18:27.148838,109,5.413876283333334,S191210,Conflict_Resolution
False,RIGHT,1150.0000023,,,,,RIGHT,356.92500000004657,2019-12-10 13:18:28.346095,2019-12-10 13:18:28.924905,110,5.413876283333334,S191210,Conflict_Resolution
True,LEFT,1116.6666689,,,,,LEFT,676.725499999975,2019-12-10 13:18:30.090475,2019-12-10 13:18:30.988975,111,5.413876283333334,S191210,Conflict_Resolution
False,RIGHT,1216.6666691,,,,,RIGHT,609.3731999999363,2019-12-10 13:18:32.254062,2019-12-10 13:18:33.085135,112,5.413876283333334,S191210,Conflict_Resolution
False,LEFT,1200.0000024,,,,,LEFT,439.1186000000289,2019-12-10 13:18:34.335989,2019-12-10 13:18:34.997790,113,5.413876283333334,S191210,Conflict_Resolution
True,RIGHT,1150.0000023,,,,,RIGHT,666.7702999999392,2019-12-10 13:18:36.195682,2019-12-10 13:18:37.084236,114,5.413876283333334,S191210,Conflict_Resolution
False,LEFT,1416.6666695000001,,,,,LEFT,491.5987000000541,2019-12-10 13:18:38.546972,2019-12-10 13:18:39.261208,115,5.413876283333334,S191210,Conflict_Resolution
True,RIGHT,1050.0000021,,,,,RIGHT,751.9723999999997,2019-12-10 13:18:40.358867,2019-12-10 13:18:41.332862,116,5.413876283333334,S191210,Conflict_Resolution
True,RIGHT,600.0000012,,,,,RIGHT,618.8501999999971,2019-12-10 13:18:41.980114,2019-12-10 13:18:42.821012,117,5.413876283333334,S191210,Conflict_Resolution
True,RIGHT,1466.6666696,,,,,RIGHT,591.107700000066,2019-12-10 13:18:44.336200,2019-12-10 13:18:45.148978,118,5.413876283333334,S191210,Conflict_Resolution
True,LEFT,816.6666683,,,,,LEFT,658.2802000000356,2019-12-10 13:18:46.012906,2019-12-10 13:18:46.890807,119,5.413876283333334,S191210,Conflict_Resolution
False,RIGHT,500.000001,,,,,RIGHT,456.25829999994494,2019-12-10 13:18:47.438909,2019-12-10 13:18:48.116882,120,5.413876283333334,S191210,Conflict_Resolution
True,LEFT,533.3333344,,,,,LEFT,393.6939999999822,2019-12-10 13:18:48.701350,2019-12-10 13:18:49.319759,121,5.413876283333334,S191210,Conflict_Resolution
False,RIGHT,1033.3333354000001,,,,,RIGHT,380.0440999999637,2019-12-10 13:18:50.402539,2019-12-10 13:18:51.006326,122,5.413876283333334,S191210,Conflict_Resolution
True,RIGHT,1383.3333361,,,,,RIGHT,459.2552000000296,2019-12-10 13:18:52.435983,2019-12-10 13:18:53.116989,123,5.413876283333334,S191210,Conflict_Resolution
True,LEFT,866.6666684,,,,,LEFT,404.4286999999258,2019-12-10 13:18:54.034269,2019-12-10 13:18:54.661059,124,5.413876283333334,S191210,Conflict_Resolution
False,RIGHT,633.3333346000001,,,,,RIGHT,373.165599999993,2019-12-10 13:18:55.345817,2019-12-10 13:18:55.944143,125,5.413876283333334,S191210,Conflict_Resolution
True,LEFT,966.6666686,,,,,LEFT,396.5515999999525,2019-12-10 13:18:56.962088,2019-12-10 13:18:57.581919,126,5.413876283333334,S191210,Conflict_Resolution
True,LEFT,1416.6666695000001,,,,,LEFT,422.42350000003626,2019-12-10 13:18:59.048227,2019-12-10 13:18:59.694152,127,5.413876283333334,S191210,Conflict_Resolution
False,LEFT,950.0000019,,,,,LEFT,366.11249999998563,2019-12-10 13:19:00.688823,2019-12-10 13:19:01.275683,128,5.413876283333334,S191210,Conflict_Resolution
True,RIGHT,533.3333344,,,,,LEFT,338.38249999996606,2019-12-10 13:19:01.852792,2019-12-10 13:19:02.414004,129,5.413876283333334,S191210,Conflict_Resolution
True,LEFT,1266.6666692000001,,,,,LEFT,455.2807999999686,2019-12-10 13:19:03.727444,2019-12-10 13:19:04.398392,130,5.413876283333334,S191210,Conflict_Resolution
True,RIGHT,1283.3333359,,,,,RIGHT,541.9690999999602,2019-12-10 13:19:05.728941,2019-12-10 13:19:06.492360,131,5.413876283333334,S191210,Conflict_Resolution
True,LEFT,1066.6666688,,,,,LEFT,503.9871999999832,2019-12-10 13:19:07.606932,2019-12-10 13:19:08.333947,132,5.413876283333334,S191210,Conflict_Resolution
True,RIGHT,833.333335,,,,,RIGHT,504.25319999999374,2019-12-10 13:19:09.206528,2019-12-10 13:19:09.932829,133,5.413876283333334,S191210,Conflict_Resolution
False,RIGHT,1133.3333356,,,,,RIGHT,359.9778000000242,2019-12-10 13:19:11.110984,2019-12-10 13:19:11.692808,134,5.413876283333334,S191210,Conflict_Resolution
True,LEFT,683.3333347,,,,,LEFT,472.38039999990633,2019-12-10 13:19:12.422630,2019-12-10 13:19:13.117440,135,5.413876283333334,S191210,Conflict_Resolution
True,RIGHT,1133.3333356,,,,,RIGHT,440.8207000000175,2019-12-10 13:19:14.301909,2019-12-10 13:19:14.966951,136,5.413876283333334,S191210,Conflict_Resolution
False,LEFT,1400.0000028,,,,,LEFT,375.78289999999015,2019-12-10 13:19:16.414837,2019-12-10 13:19:17.014000,137,5.413876283333334,S191210,Conflict_Resolution
True,LEFT,1050.0000021,,,,,LEFT,519.4020000000137,2019-12-10 13:19:18.111650,2019-12-10 13:19:18.853364,138,5.413876283333334,S191210,Conflict_Resolution
False,RIGHT,550.0000011,,,,,RIGHT,694.9071000000231,2019-12-10 13:19:19.455920,2019-12-10 13:19:20.373177,139,5.413876283333334,S191210,Conflict_Resolution
True,RIGHT,550.0000011,,,,,RIGHT,520.1045000000022,2019-12-10 13:19:20.974964,2019-12-10 13:19:21.717735,140,5.413876283333334,S191210,Conflict_Resolution
False,LEFT,1250.0000025,,,,,LEFT,437.5884999999471,2019-12-10 13:19:23.017712,2019-12-10 13:19:23.676653,141,5.413876283333334,S191210,Conflict_Resolution
True,RIGHT,1033.3333354000001,,,,,RIGHT,750.0053999999636,2019-12-10 13:19:24.760977,2019-12-10 13:19:25.733435,142,5.413876283333334,S191210,Conflict_Resolution
False,LEFT,1100.0000022,,,,,LEFT,373.12520000000404,2019-12-10 13:19:26.881848,2019-12-10 13:19:27.477703,143,5.413876283333334,S191210,Conflict_Resolution
False,LEFT,1000.000002,,,,,LEFT,360.48700000003464,2019-12-10 13:19:28.527308,2019-12-10 13:19:29.110025,144,5.413876283333334,S191210,Conflict_Resolution
False,LEFT,850.0000017,,,,,LEFT,346.73929999996744,2019-12-10 13:19:30.011897,2019-12-10 13:19:30.583988,145,5.413876283333334,S191210,Conflict_Resolution
False,RIGHT,1283.3333359,,,,,RIGHT,394.40509999997175,2019-12-10 13:19:31.917880,2019-12-10 13:19:32.536014,146,5.413876283333334,S191210,Conflict_Resolution
True,RIGHT,1233.3333358,,,,,RIGHT,902.0490000000336,2019-12-10 13:19:33.816743,2019-12-10 13:19:34.940301,147,5.413876283333334,S191210,Conflict_Resolution
True,RIGHT,1100.0000022,,,,,RIGHT,607.2181000000683,2019-12-10 13:19:36.088027,2019-12-10 13:19:36.918143,148,5.413876283333334,S191210,Conflict_Resolution
True,RIGHT,800.0000016,,,,,RIGHT,392.3130000000583,2019-12-10 13:19:37.766532,2019-12-10 13:19:38.380938,149,5.413876283333334,S191210,Conflict_Resolution
False,LEFT,1300.0000026,,,,,LEFT,405.97090000005664,2019-12-10 13:19:39.729008,2019-12-10 13:19:40.356322,150,5.413876283333334,S191210,Conflict_Resolution
False,RIGHT,600.0000012,,,,,RIGHT,427.5176000001011,2019-12-10 13:19:41.002934,2019-12-10 13:19:41.652990,151,5.413876283333334,S191210,Conflict_Resolution
False,RIGHT,1100.0000022,,,,,RIGHT,399.7380000000703,2019-12-10 13:19:42.798870,2019-12-10 13:19:43.420631,152,5.413876283333334,S191210,Conflict_Resolution
False,RIGHT,983.3333353,,,,,RIGHT,410.3433000000223,2019-12-10 13:19:44.452118,2019-12-10 13:19:45.085158,153,5.413876283333334,S191210,Conflict_Resolution
False,LEFT,1150.0000023,,,,,LEFT,407.29269999997086,2019-12-10 13:19:46.288080,2019-12-10 13:19:46.919193,154,5.413876283333334,S191210,Conflict_Resolution
False,LEFT,966.6666686,,,,,LEFT,415.7740999999078,2019-12-10 13:19:47.935334,2019-12-10 13:19:48.572946,155,5.413876283333334,S191210,Conflict_Resolution
False,LEFT,1316.6666693,,,,,LEFT,365.50260000012713,2019-12-10 13:19:49.937709,2019-12-10 13:19:50.518242,156,5.413876283333334,S191210,Conflict_Resolution
True,LEFT,916.6666685,,,,,LEFT,676.4321999999083,2019-12-10 13:19:51.482841,2019-12-10 13:19:52.380158,157,5.413876283333334,S191210,Conflict_Resolution
False,RIGHT,1433.3333362,,,,,RIGHT,457.33190000009927,2019-12-10 13:19:53.861144,2019-12-10 13:19:54.540188,158,5.413876283333334,S191210,Conflict_Resolution
False,RIGHT,833.333335,,,,,RIGHT,393.43910000002325,2019-12-10 13:19:55.421287,2019-12-10 13:19:56.035280,159,5.413876283333334,S191210,Conflict_Resolution
True,RIGHT,583.3333345,,,,,RIGHT,300.179000000071,2019-12-10 13:19:56.667168,2019-12-10 13:19:57.189218,160,5.413876283333334,S191210,Conflict_Resolution
