Conflict,Stimulus_Side,ITI,Previous_Response,Previous_RT,Cue_Response,Cue_Response_RT,Response,RT,Trial_Time_Onset,Trial_Time_End,Trial_Order,Duration,Participant,Task
False,RIGHT,1033.3333354000001,,,,,RIGHT,553.11819100001,2019-11-19 11:04:02.623823,2019-11-19 11:04:03.383787,1,5.1913861,S12,Conflict_Resolution
False,LEFT,1300.0000026,,,,,LEFT,449.84449600002563,2019-11-19 11:04:04.701416,2019-11-19 11:04:05.358403,2,5.1913861,S12,Conflict_Resolution
False,LEFT,1316.6666693,,,,,LEFT,509.893720999969,2019-11-19 11:04:06.692904,2019-11-19 11:04:07.409004,3,5.1913861,S12,Conflict_Resolution
True,RIGHT,783.3333349000001,,,,,RIGHT,721.1298549999583,2019-11-19 11:04:08.210109,2019-11-19 11:04:09.137391,4,5.1913861,S12,Conflict_Resolution
False,LEFT,733.3333348,,,,,LEFT,460.8136979999813,2019-11-19 11:04:09.888395,2019-11-19 11:04:10.556652,5,5.1913861,S12,Conflict_Resolution
True,LEFT,1266.6666692000001,,,,,LEFT,507.2438060000195,2019-11-19 11:04:11.841600,2019-11-19 11:04:12.555768,6,5.1913861,S12,Conflict_Resolution
True,LEFT,1466.6666696,,,,,LEFT,445.0355089999789,2019-11-19 11:04:14.040625,2019-11-19 11:04:14.692093,7,5.1913861,S12,Conflict_Resolution
True,RIGHT,733.3333348,,,,,RIGHT,488.7476459999789,2019-11-19 11:04:15.444087,2019-11-19 11:04:16.140442,8,5.1913861,S12,Conflict_Resolution
False,RIGHT,1233.3333358,,,,,RIGHT,406.9416140000044,2019-11-19 11:04:17.392324,2019-11-19 11:04:18.006307,9,5.1913861,S12,Conflict_Resolution
True,RIGHT,1133.3333356,,,,,RIGHT,562.7555590000384,2019-11-19 11:04:19.158728,2019-11-19 11:04:19.928957,10,5.1913861,S12,Conflict_Resolution
True,LEFT,616.6666679,,,,,LEFT,514.3412770000282,2019-11-19 11:04:20.564259,2019-11-19 11:04:21.285374,11,5.1913861,S12,Conflict_Resolution
True,RIGHT,750.0000015,,,,,RIGHT,520.0427369999829,2019-11-19 11:04:22.052827,2019-11-19 11:04:22.778888,12,5.1913861,S12,Conflict_Resolution
False,LEFT,616.6666679,,,,,LEFT,431.06447899998557,2019-11-19 11:04:23.414017,2019-11-19 11:04:24.053648,13,5.1913861,S12,Conflict_Resolution
False,RIGHT,1433.3333362,,,,,RIGHT,384.80715399998644,2019-11-19 11:04:25.505761,2019-11-19 11:04:26.097254,14,5.1913861,S12,Conflict_Resolution
True,LEFT,816.6666683,,,,,LEFT,483.7062850000393,2019-11-19 11:04:26.930558,2019-11-19 11:04:27.621614,15,5.1913861,S12,Conflict_Resolution
False,RIGHT,600.0000012,,,,,RIGHT,453.4923169999274,2019-11-19 11:04:28.240487,2019-11-19 11:04:28.900554,16,5.1913861,S12,Conflict_Resolution
True,LEFT,1166.666669,,,,,LEFT,556.6718620000302,2019-11-19 11:04:30.086174,2019-11-19 11:04:30.848984,17,5.1913861,S12,Conflict_Resolution
True,LEFT,950.0000019,,,,,LEFT,495.0358610000194,2019-11-19 11:04:31.817193,2019-11-19 11:04:32.520028,18,5.1913861,S12,Conflict_Resolution
True,RIGHT,900.0000018000001,,,,,RIGHT,462.20582899991314,2019-11-19 11:04:33.438663,2019-11-19 11:04:34.107697,19,5.1913861,S12,Conflict_Resolution
True,RIGHT,850.0000017,,,,,RIGHT,492.23855299999286,2019-11-19 11:04:34.974954,2019-11-19 11:04:35.674252,20,5.1913861,S12,Conflict_Resolution
True,LEFT,1300.0000026,,,,,LEFT,471.53395299994827,2019-11-19 11:04:36.991369,2019-11-19 11:04:37.670008,21,5.1913861,S12,Conflict_Resolution
False,LEFT,716.6666681,,,,,LEFT,470.6559369999468,2019-11-19 11:04:38.404685,2019-11-19 11:04:39.082302,22,5.1913861,S12,Conflict_Resolution
False,RIGHT,1333.3333360000001,,,,,RIGHT,466.8504969999958,2019-11-19 11:04:40.435598,2019-11-19 11:04:41.107823,23,5.1913861,S12,Conflict_Resolution
True,LEFT,1400.0000028,,,,,LEFT,535.4866469999706,2019-11-19 11:04:42.527219,2019-11-19 11:04:43.270131,24,5.1913861,S12,Conflict_Resolution
False,RIGHT,750.0000015,,,,,RIGHT,399.14772500003437,2019-11-19 11:04:44.038858,2019-11-19 11:04:44.644740,25,5.1913861,S12,Conflict_Resolution
True,LEFT,1216.6666691,,,,,LEFT,444.38880900008826,2019-11-19 11:04:45.881077,2019-11-19 11:04:46.531857,26,5.1913861,S12,Conflict_Resolution
False,LEFT,766.6666682,,,,,LEFT,338.6291669999082,2019-11-19 11:04:47.318422,2019-11-19 11:04:47.863642,27,5.1913861,S12,Conflict_Resolution
False,LEFT,1416.6666695000001,,,,,LEFT,328.3401620000177,2019-11-19 11:04:49.298011,2019-11-19 11:04:49.832745,28,5.1913861,S12,Conflict_Resolution
False,RIGHT,1483.3333363,,,,,RIGHT,384.2281570000523,2019-11-19 11:04:51.334168,2019-11-19 11:04:51.925399,29,5.1913861,S12,Conflict_Resolution
True,LEFT,1450.0000029,,,,,LEFT,453.88618900005895,2019-11-19 11:04:53.393620,2019-11-19 11:04:54.054612,30,5.1913861,S12,Conflict_Resolution
True,RIGHT,1000.000002,,,,,RIGHT,409.7787680000238,2019-11-19 11:04:55.073228,2019-11-19 11:04:55.689683,31,5.1913861,S12,Conflict_Resolution
True,LEFT,716.6666681,,,,,LEFT,417.7683589999788,2019-11-19 11:04:56.425222,2019-11-19 11:04:57.050173,32,5.1913861,S12,Conflict_Resolution
False,LEFT,1366.6666694,,,,,LEFT,381.6628710000032,2019-11-19 11:04:58.434963,2019-11-19 11:04:59.023233,33,5.1913861,S12,Conflict_Resolution
False,RIGHT,950.0000019,,,,,RIGHT,370.84740800003146,2019-11-19 11:04:59.991425,2019-11-19 11:05:00.568908,34,5.1913861,S12,Conflict_Resolution
False,LEFT,533.3333344,,,,,LEFT,361.7421380000678,2019-11-19 11:05:01.121394,2019-11-19 11:05:01.689338,35,5.1913861,S12,Conflict_Resolution
False,LEFT,583.3333345,,,,,LEFT,408.4169620000466,2019-11-19 11:05:02.290799,2019-11-19 11:05:02.907659,36,5.1913861,S12,Conflict_Resolution
False,LEFT,683.3333347,,,,,LEFT,390.58830499993746,2019-11-19 11:05:03.609777,2019-11-19 11:05:04.207472,37,5.1913861,S12,Conflict_Resolution
True,RIGHT,1183.3333357000001,,,,,RIGHT,405.9574609999572,2019-11-19 11:05:05.408871,2019-11-19 11:05:06.021945,38,5.1913861,S12,Conflict_Resolution
False,RIGHT,1083.3333355,,,,,LEFT,456.1401160000287,2019-11-19 11:05:07.123297,2019-11-19 11:05:07.786195,39,5.1913861,S12,Conflict_Resolution
True,LEFT,1316.6666693,,,,,LEFT,498.72141200000897,2019-11-19 11:05:09.123124,2019-11-19 11:05:09.828902,40,5.1913861,S12,Conflict_Resolution
False,LEFT,1000.000002,,,,,LEFT,496.30387100000917,2019-11-19 11:05:10.846542,2019-11-19 11:05:11.549864,41,5.1913861,S12,Conflict_Resolution
False,LEFT,900.0000018000001,,,,,LEFT,442.3609100000476,2019-11-19 11:05:12.468344,2019-11-19 11:05:13.116850,42,5.1913861,S12,Conflict_Resolution
True,LEFT,1200.0000024,,,,,LEFT,560.4088950000232,2019-11-19 11:05:14.335684,2019-11-19 11:05:15.102253,43,5.1913861,S12,Conflict_Resolution
True,RIGHT,950.0000019,,,,,RIGHT,439.64152900002773,2019-11-19 11:05:16.066248,2019-11-19 11:05:16.713265,44,5.1913861,S12,Conflict_Resolution
False,RIGHT,583.3333345,,,,,RIGHT,460.01290599997446,2019-11-19 11:05:17.314828,2019-11-19 11:05:17.981295,45,5.1913861,S12,Conflict_Resolution
True,LEFT,566.6666678,,,,,LEFT,442.2343210000008,2019-11-19 11:05:18.566837,2019-11-19 11:05:19.214754,46,5.1913861,S12,Conflict_Resolution
True,LEFT,1050.0000021,,,,,LEFT,509.6927299999834,2019-11-19 11:05:20.285354,2019-11-19 11:05:21.003982,47,5.1913861,S12,Conflict_Resolution
True,LEFT,1250.0000025,,,,,LEFT,476.37714500001493,2019-11-19 11:05:22.271759,2019-11-19 11:05:22.953738,48,5.1913861,S12,Conflict_Resolution
False,LEFT,516.6666677000001,,,,,LEFT,447.6621510000314,2019-11-19 11:05:23.488914,2019-11-19 11:05:24.143998,49,5.1913861,S12,Conflict_Resolution
False,LEFT,1100.0000022,,,,,LEFT,377.4011440000322,2019-11-19 11:05:25.263253,2019-11-19 11:05:25.847094,50,5.1913861,S12,Conflict_Resolution
False,RIGHT,1383.3333361,,,,,RIGHT,399.9435819999917,2019-11-19 11:05:27.249017,2019-11-19 11:05:27.855847,51,5.1913861,S12,Conflict_Resolution
True,RIGHT,1483.3333363,,,,,RIGHT,466.2334180000016,2019-11-19 11:05:29.358005,2019-11-19 11:05:30.031124,52,5.1913861,S12,Conflict_Resolution
False,LEFT,1500.000003,,,,,LEFT,389.38376700002664,2019-11-19 11:05:31.549076,2019-11-19 11:05:32.145627,53,5.1913861,S12,Conflict_Resolution
True,LEFT,916.6666685,,,,,LEFT,475.24277700006223,2019-11-19 11:05:33.080777,2019-11-19 11:05:33.763209,54,5.1913861,S12,Conflict_Resolution
True,LEFT,783.3333349000001,,,,,LEFT,428.3856499999956,2019-11-19 11:05:34.564066,2019-11-19 11:05:35.199582,55,5.1913861,S12,Conflict_Resolution
True,RIGHT,1333.3333360000001,,,,,RIGHT,464.6596889999728,2019-11-19 11:05:36.551954,2019-11-19 11:05:37.223131,56,5.1913861,S12,Conflict_Resolution
True,LEFT,1066.6666688,,,,,LEFT,426.51783899998463,2019-11-19 11:05:38.308773,2019-11-19 11:05:38.941534,57,5.1913861,S12,Conflict_Resolution
True,LEFT,733.3333348,,,,,LEFT,475.1944680000406,2019-11-19 11:05:39.694369,2019-11-19 11:05:40.376553,58,5.1913861,S12,Conflict_Resolution
True,LEFT,766.6666682,,,,,LEFT,555.2455280000004,2019-11-19 11:05:41.161970,2019-11-19 11:05:41.924433,59,5.1913861,S12,Conflict_Resolution
True,RIGHT,500.000001,,,,,RIGHT,668.333604000054,2019-11-19 11:05:42.442124,2019-11-19 11:05:43.317512,60,5.1913861,S12,Conflict_Resolution
False,RIGHT,1216.6666691,,,,,RIGHT,573.091814999998,2019-11-19 11:05:44.552581,2019-11-19 11:05:45.332673,61,5.1913861,S12,Conflict_Resolution
True,RIGHT,1033.3333354000001,,,,,RIGHT,532.3885560000008,2019-11-19 11:05:46.383153,2019-11-19 11:05:47.123331,62,5.1913861,S12,Conflict_Resolution
False,LEFT,1216.6666691,,,,,LEFT,638.5258500000646,2019-11-19 11:05:48.358601,2019-11-19 11:05:49.204493,63,5.1913861,S12,Conflict_Resolution
True,LEFT,1116.6666689,,,,,LEFT,774.8337409999522,2019-11-19 11:05:50.340524,2019-11-19 11:05:51.322237,64,5.1913861,S12,Conflict_Resolution
True,LEFT,1500.000003,,,,,LEFT,518.612523999991,2019-11-19 11:05:52.839575,2019-11-19 11:05:53.565082,65,5.1913861,S12,Conflict_Resolution
False,RIGHT,1000.000002,,,,,RIGHT,552.4401080000416,2019-11-19 11:05:54.583009,2019-11-19 11:05:55.342662,66,5.1913861,S12,Conflict_Resolution
False,LEFT,1050.0000021,,,,,LEFT,399.10682200002157,2019-11-19 11:05:56.412189,2019-11-19 11:05:57.018012,67,5.1913861,S12,Conflict_Resolution
True,LEFT,1100.0000022,,,,,LEFT,559.4515400000546,2019-11-19 11:05:58.136121,2019-11-19 11:05:58.902904,68,5.1913861,S12,Conflict_Resolution
True,LEFT,583.3333345,,,,,LEFT,614.8684380000304,2019-11-19 11:05:59.504633,2019-11-19 11:06:00.326446,69,5.1913861,S12,Conflict_Resolution
False,LEFT,950.0000019,,,,,LEFT,397.3391539999511,2019-11-19 11:06:01.295422,2019-11-19 11:06:01.898976,70,5.1913861,S12,Conflict_Resolution
False,RIGHT,1416.6666695000001,,,,,RIGHT,370.6122130000722,2019-11-19 11:06:03.333596,2019-11-19 11:06:03.912679,71,5.1913861,S12,Conflict_Resolution
True,RIGHT,933.3333352,,,,,RIGHT,558.2406540000875,2019-11-19 11:06:04.863779,2019-11-19 11:06:05.628788,72,5.1913861,S12,Conflict_Resolution
True,RIGHT,600.0000012,,,,,RIGHT,607.7332380000371,2019-11-19 11:06:06.246199,2019-11-19 11:06:07.061210,73,5.1913861,S12,Conflict_Resolution
True,RIGHT,1233.3333358,,,,,RIGHT,426.95543600007113,2019-11-19 11:06:08.312925,2019-11-19 11:06:08.945902,74,5.1913861,S12,Conflict_Resolution
False,RIGHT,800.0000016,,,,,RIGHT,407.9892380000274,2019-11-19 11:06:09.763714,2019-11-19 11:06:10.378547,75,5.1913861,S12,Conflict_Resolution
True,RIGHT,1433.3333362,,,,,RIGHT,460.2188340001021,2019-11-19 11:06:11.831605,2019-11-19 11:06:12.498086,76,5.1913861,S12,Conflict_Resolution
False,RIGHT,900.0000018000001,,,,,RIGHT,376.39019200003077,2019-11-19 11:06:13.412722,2019-11-19 11:06:13.996231,77,5.1913861,S12,Conflict_Resolution
True,LEFT,1150.0000023,,,,,LEFT,503.5691869999255,2019-11-19 11:06:15.164214,2019-11-19 11:06:15.875275,78,5.1913861,S12,Conflict_Resolution
False,RIGHT,933.3333352,,,,,RIGHT,527.3380249999491,2019-11-19 11:06:16.826808,2019-11-19 11:06:17.560064,79,5.1913861,S12,Conflict_Resolution
True,LEFT,1416.6666695000001,,,,,LEFT,469.5279169999367,2019-11-19 11:06:18.995204,2019-11-19 11:06:19.671309,80,5.1913861,S12,Conflict_Resolution
True,RIGHT,700.0000014,,,,,RIGHT,561.6349430000582,2019-11-19 11:06:20.390870,2019-11-19 11:06:21.158697,81,5.1913861,S12,Conflict_Resolution
False,RIGHT,1316.6666693,,,,,RIGHT,388.57204299995374,2019-11-19 11:06:22.495142,2019-11-19 11:06:23.089748,82,5.1913861,S12,Conflict_Resolution
False,LEFT,1016.6666687000001,,,,,LEFT,750.2655199999708,2019-11-19 11:06:24.125526,2019-11-19 11:06:25.083068,83,5.1913861,S12,Conflict_Resolution
True,RIGHT,983.3333353,,,,,RIGHT,509.42086200007,2019-11-19 11:06:26.085057,2019-11-19 11:06:26.801174,84,5.1913861,S12,Conflict_Resolution
False,LEFT,916.6666685,,,,,LEFT,490.97018999998454,2019-11-19 11:06:27.737176,2019-11-19 11:06:28.435071,85,5.1913861,S12,Conflict_Resolution
False,LEFT,783.3333349000001,,,,,LEFT,511.3743590000013,2019-11-19 11:06:29.236937,2019-11-19 11:06:29.955085,86,5.1913861,S12,Conflict_Resolution
True,LEFT,633.3333346000001,,,,,LEFT,707.2085449999577,2019-11-19 11:06:30.602429,2019-11-19 11:06:31.515812,87,5.1913861,S12,Conflict_Resolution
True,RIGHT,1150.0000023,,,,,RIGHT,493.0707280000206,2019-11-19 11:06:32.684798,2019-11-19 11:06:33.383749,88,5.1913861,S12,Conflict_Resolution
True,LEFT,900.0000018000001,,,,,LEFT,655.9927220000645,2019-11-19 11:06:34.302303,2019-11-19 11:06:35.164183,89,5.1913861,S12,Conflict_Resolution
False,RIGHT,883.3333351,,,,,RIGHT,482.4453270000504,2019-11-19 11:06:36.066403,2019-11-19 11:06:36.755589,90,5.1913861,S12,Conflict_Resolution
False,RIGHT,1283.3333359,,,,,RIGHT,457.4592550000034,2019-11-19 11:06:38.057620,2019-11-19 11:06:38.722013,91,5.1913861,S12,Conflict_Resolution
False,LEFT,1250.0000025,,,,,RIGHT,616.6593789999979,2019-11-19 11:06:39.990727,2019-11-19 11:06:40.813045,92,5.1913861,S12,Conflict_Resolution
False,RIGHT,1266.6666692000001,,,,,RIGHT,551.7087800000127,2019-11-19 11:06:42.099550,2019-11-19 11:06:42.857962,93,5.1913861,S12,Conflict_Resolution
False,RIGHT,983.3333353,,,,,RIGHT,584.9707679999483,2019-11-19 11:06:43.859284,2019-11-19 11:06:44.652080,94,5.1913861,S12,Conflict_Resolution
False,LEFT,966.6666686,,,,,LEFT,473.2956269999704,2019-11-19 11:06:45.635955,2019-11-19 11:06:46.315072,95,5.1913861,S12,Conflict_Resolution
True,LEFT,1350.0000027,,,,,LEFT,543.9057250000587,2019-11-19 11:06:47.684333,2019-11-19 11:06:48.434217,96,5.1913861,S12,Conflict_Resolution
True,RIGHT,1316.6666693,,,,,RIGHT,516.2193140000682,2019-11-19 11:06:49.769802,2019-11-19 11:06:50.491731,97,5.1913861,S12,Conflict_Resolution
True,RIGHT,1083.3333355,,,,,RIGHT,567.5920500000302,2019-11-19 11:06:51.592787,2019-11-19 11:06:52.367071,98,5.1913861,S12,Conflict_Resolution
False,RIGHT,500.000001,,,,,RIGHT,776.28581700003,2019-11-19 11:06:52.885697,2019-11-19 11:06:53.868882,99,5.1913861,S12,Conflict_Resolution
False,LEFT,1166.666669,,,,,LEFT,537.8153279999651,2019-11-19 11:06:55.054431,2019-11-19 11:06:55.799307,100,5.1913861,S12,Conflict_Resolution
False,RIGHT,1133.3333356,,,,,RIGHT,563.3581810000123,2019-11-19 11:06:56.951674,2019-11-19 11:06:57.722270,101,5.1913861,S12,Conflict_Resolution
False,RIGHT,533.3333344,,,,,RIGHT,757.3485340000161,2019-11-19 11:06:58.273760,2019-11-19 11:06:59.238005,102,5.1913861,S12,Conflict_Resolution
True,LEFT,850.0000017,,,,,LEFT,546.6995069999712,2019-11-19 11:07:00.107660,2019-11-19 11:07:00.860782,103,5.1913861,S12,Conflict_Resolution
True,RIGHT,683.3333347,,,,,RIGHT,609.3630330000224,2019-11-19 11:07:01.562853,2019-11-19 11:07:02.378736,104,5.1913861,S12,Conflict_Resolution
True,RIGHT,1216.6666691,,,,,RIGHT,455.2543429999787,2019-11-19 11:07:03.613318,2019-11-19 11:07:04.275461,105,5.1913861,S12,Conflict_Resolution
True,RIGHT,1050.0000021,,,,,RIGHT,587.2673610000447,2019-11-19 11:07:05.343500,2019-11-19 11:07:06.137320,106,5.1913861,S12,Conflict_Resolution
False,LEFT,1200.0000024,,,,,LEFT,466.22389700007716,2019-11-19 11:07:07.356164,2019-11-19 11:07:08.028990,107,5.1913861,S12,Conflict_Resolution
False,RIGHT,1466.6666696,,,,,RIGHT,498.5768390000658,2019-11-19 11:07:09.513369,2019-11-19 11:07:10.218806,108,5.1913861,S12,Conflict_Resolution
False,RIGHT,1183.3333357000001,,,,,RIGHT,433.40550300001723,2019-11-19 11:07:11.421285,2019-11-19 11:07:12.060742,109,5.1913861,S12,Conflict_Resolution
True,RIGHT,1100.0000022,,,,,RIGHT,575.7681759999969,2019-11-19 11:07:13.179071,2019-11-19 11:07:13.962470,110,5.1913861,S12,Conflict_Resolution
False,LEFT,866.6666684,,,,,LEFT,927.8796449999618,2019-11-19 11:07:14.847210,2019-11-19 11:07:15.981609,111,5.1913861,S12,Conflict_Resolution
True,RIGHT,833.333335,,,,,RIGHT,668.8360830000875,2019-11-19 11:07:16.833369,2019-11-19 11:07:17.709199,112,5.1913861,S12,Conflict_Resolution
False,RIGHT,1150.0000023,,,,,RIGHT,378.1028509999942,2019-11-19 11:07:18.879447,2019-11-19 11:07:19.464523,113,5.1913861,S12,Conflict_Resolution
True,LEFT,516.6666677000001,,,,,LEFT,832.3402469999337,2019-11-19 11:07:19.996040,2019-11-19 11:07:21.034872,114,5.1913861,S12,Conflict_Resolution
False,RIGHT,550.0000011,,,,,RIGHT,910.8285080000087,2019-11-19 11:07:21.603347,2019-11-19 11:07:22.721031,115,5.1913861,S12,Conflict_Resolution
False,LEFT,816.6666683,,,,,LEFT,588.8848140000391,2019-11-19 11:07:23.556260,2019-11-19 11:07:24.351786,116,5.1913861,S12,Conflict_Resolution
True,RIGHT,1466.6666696,,,,,RIGHT,525.8633820000114,2019-11-19 11:07:25.837321,2019-11-19 11:07:26.570236,117,5.1913861,S12,Conflict_Resolution
True,RIGHT,800.0000016,,,,,RIGHT,729.3641609999213,2019-11-19 11:07:27.388586,2019-11-19 11:07:28.323757,118,5.1913861,S12,Conflict_Resolution
False,LEFT,633.3333346000001,,,,,LEFT,767.9319730000316,2019-11-19 11:07:28.976196,2019-11-19 11:07:29.951265,119,5.1913861,S12,Conflict_Resolution
True,LEFT,666.6666680000001,,,,,LEFT,923.8340720000906,2019-11-19 11:07:30.632440,2019-11-19 11:07:31.762747,120,5.1913861,S12,Conflict_Resolution
False,LEFT,1350.0000027,,,,,LEFT,408.65251000002445,2019-11-19 11:07:33.131322,2019-11-19 11:07:33.746274,121,5.1913861,S12,Conflict_Resolution
True,RIGHT,633.3333346000001,,,,,RIGHT,809.2762900000707,2019-11-19 11:07:34.398559,2019-11-19 11:07:35.414594,122,5.1913861,S12,Conflict_Resolution
False,RIGHT,1050.0000021,,,,,RIGHT,427.51680300000316,2019-11-19 11:07:36.483381,2019-11-19 11:07:37.117438,123,5.1913861,S12,Conflict_Resolution
False,LEFT,1116.6666689,,,,,LEFT,478.47450999995544,2019-11-19 11:07:38.252521,2019-11-19 11:07:38.938652,124,5.1913861,S12,Conflict_Resolution
False,LEFT,850.0000017,,,,,LEFT,482.434043000012,2019-11-19 11:07:39.806946,2019-11-19 11:07:40.496553,125,5.1913861,S12,Conflict_Resolution
True,LEFT,1016.6666687000001,,,,,LEFT,575.4212000000507,2019-11-19 11:07:41.531470,2019-11-19 11:07:42.313453,126,5.1913861,S12,Conflict_Resolution
True,RIGHT,1366.6666694,,,,,RIGHT,428.0813409999382,2019-11-19 11:07:43.700259,2019-11-19 11:07:44.334870,127,5.1913861,S12,Conflict_Resolution
True,RIGHT,1416.6666695000001,,,,,RIGHT,493.26255100004346,2019-11-19 11:07:45.769993,2019-11-19 11:07:46.470674,128,5.1913861,S12,Conflict_Resolution
True,RIGHT,1383.3333361,,,,,RIGHT,587.2677139999496,2019-11-19 11:07:47.871973,2019-11-19 11:07:48.665962,129,5.1913861,S12,Conflict_Resolution
False,RIGHT,683.3333347,,,,,RIGHT,444.6067269999503,2019-11-19 11:07:49.366661,2019-11-19 11:07:50.017987,130,5.1913861,S12,Conflict_Resolution
False,LEFT,1466.6666696,,,,,LEFT,517.4495930000376,2019-11-19 11:07:51.503288,2019-11-19 11:07:52.227997,131,5.1913861,S12,Conflict_Resolution
True,LEFT,533.3333344,,,,,RIGHT,813.6949299999969,2019-11-19 11:07:52.779922,2019-11-19 11:07:53.800916,132,5.1913861,S12,Conflict_Resolution
False,LEFT,1066.6666688,,,,,LEFT,438.2289469999705,2019-11-19 11:07:54.886293,2019-11-19 11:07:55.531535,133,5.1913861,S12,Conflict_Resolution
False,RIGHT,633.3333346000001,,,,,RIGHT,552.6188840000259,2019-11-19 11:07:56.181873,2019-11-19 11:07:56.941469,134,5.1913861,S12,Conflict_Resolution
True,LEFT,1366.6666694,,,,,LEFT,568.5758509999914,2019-11-19 11:07:58.326724,2019-11-19 11:07:59.102566,135,5.1913861,S12,Conflict_Resolution
True,LEFT,866.6666684,,,,,LEFT,472.7190979999705,2019-11-19 11:07:59.987197,2019-11-19 11:08:00.667149,136,5.1913861,S12,Conflict_Resolution
True,RIGHT,1283.3333359,,,,,RIGHT,552.0437669999865,2019-11-19 11:08:01.968539,2019-11-19 11:08:02.728612,137,5.1913861,S12,Conflict_Resolution
True,LEFT,1000.000002,,,,,LEFT,528.2026419999966,2019-11-19 11:08:03.747416,2019-11-19 11:08:04.482653,138,5.1913861,S12,Conflict_Resolution
True,RIGHT,550.0000011,,,,,RIGHT,631.5440380000155,2019-11-19 11:08:05.051147,2019-11-19 11:08:05.888709,139,5.1913861,S12,Conflict_Resolution
False,LEFT,1150.0000023,,,,,LEFT,377.3461360000283,2019-11-19 11:08:07.057542,2019-11-19 11:08:07.640797,140,5.1913861,S12,Conflict_Resolution
False,RIGHT,700.0000014,,,,,RIGHT,465.1494749999756,2019-11-19 11:08:08.354854,2019-11-19 11:08:09.026988,141,5.1913861,S12,Conflict_Resolution
True,RIGHT,583.3333345,,,,,RIGHT,527.9702670000006,2019-11-19 11:08:09.629920,2019-11-19 11:08:10.364305,142,5.1913861,S12,Conflict_Resolution
True,RIGHT,883.3333351,,,,,RIGHT,432.89526600005956,2019-11-19 11:08:11.266891,2019-11-19 11:08:11.907196,143,5.1913861,S12,Conflict_Resolution
True,RIGHT,650.0000013,,,,,RIGHT,400.5536079999956,2019-11-19 11:08:12.575977,2019-11-19 11:08:13.184020,144,5.1913861,S12,Conflict_Resolution
False,LEFT,1450.0000029,,,,,LEFT,396.5291929999921,2019-11-19 11:08:14.651038,2019-11-19 11:08:15.254814,145,5.1913861,S12,Conflict_Resolution
False,RIGHT,850.0000017,,,,,RIGHT,435.5219080000552,2019-11-19 11:08:16.124459,2019-11-19 11:08:16.766159,146,5.1913861,S12,Conflict_Resolution
False,RIGHT,650.0000013,,,,,RIGHT,534.1840799999318,2019-11-19 11:08:17.436937,2019-11-19 11:08:18.177968,147,5.1913861,S12,Conflict_Resolution
False,RIGHT,1100.0000022,,,,,RIGHT,426.38560799991865,2019-11-19 11:08:19.296551,2019-11-19 11:08:19.928725,148,5.1913861,S12,Conflict_Resolution
False,LEFT,666.6666680000001,,,,,LEFT,523.2459080000353,2019-11-19 11:08:20.614842,2019-11-19 11:08:21.344832,149,5.1913861,S12,Conflict_Resolution
False,RIGHT,833.333335,,,,,RIGHT,446.99500000001535,2019-11-19 11:08:22.197059,2019-11-19 11:08:22.851561,150,5.1913861,S12,Conflict_Resolution
False,LEFT,1400.0000028,,,,,LEFT,439.6037999999862,2019-11-19 11:08:24.269988,2019-11-19 11:08:24.917386,151,5.1913861,S12,Conflict_Resolution
False,RIGHT,783.3333349000001,,,,,RIGHT,474.32985199998257,2019-11-19 11:08:25.719289,2019-11-19 11:08:26.401523,152,5.1913861,S12,Conflict_Resolution
False,RIGHT,733.3333348,,,,,RIGHT,421.7853689999629,2019-11-19 11:08:27.154464,2019-11-19 11:08:27.782913,153,5.1913861,S12,Conflict_Resolution
False,LEFT,566.6666678,,,,,LEFT,540.3213749999622,2019-11-19 11:08:28.368347,2019-11-19 11:08:29.115284,154,5.1913861,S12,Conflict_Resolution
True,LEFT,966.6666686,,,,,LEFT,671.2705490000417,2019-11-19 11:08:30.099649,2019-11-19 11:08:30.978297,155,5.1913861,S12,Conflict_Resolution
False,RIGHT,1366.6666694,,,,,RIGHT,438.35483099996964,2019-11-19 11:08:32.362305,2019-11-19 11:08:33.008434,156,5.1913861,S12,Conflict_Resolution
True,RIGHT,1266.6666692000001,,,,,RIGHT,519.6939989999692,2019-11-19 11:08:34.292896,2019-11-19 11:08:35.019486,157,5.1913861,S12,Conflict_Resolution
True,RIGHT,533.3333344,,,,,RIGHT,910.7957149999493,2019-11-19 11:08:35.571014,2019-11-19 11:08:36.687790,158,5.1913861,S12,Conflict_Resolution
False,LEFT,1266.6666692000001,,,,,LEFT,529.8475990000497,2019-11-19 11:08:37.972855,2019-11-19 11:08:38.709081,159,5.1913861,S12,Conflict_Resolution
True,LEFT,683.3333347,,,,,LEFT,634.8269009999967,2019-11-19 11:08:39.410810,2019-11-19 11:08:40.251807,160,5.1913861,S12,Conflict_Resolution
