Conflict,Stimulus_Side,ITI,Previous_Response,Previous_RT,Cue_Response,Cue_Response_RT,Response,RT,Trial_Time_Onset,Trial_Time_End,Trial_Order,Duration,Participant,Task
False,LEFT,1116.6666689,,,,,Time_Max_Exceeded,2389.164699999924,2019-12-11 14:23:32.186189,2019-12-11 14:23:34.575343,1,5.734949833333333,S16,Conflict_Resolution
False,LEFT,1450.0000029,LEFT,-1402.212,,,LEFT,3400.673299999994,2019-12-11 14:23:36.042370,2019-12-11 14:23:39.651418,2,5.734949833333333,S16,Conflict_Resolution
True,LEFT,966.6666686,,,,,Time_Max_Exceeded,1500.0612000000046,2019-12-11 14:23:40.642558,2019-12-11 14:23:42.142530,3,5.734949833333333,S16,Conflict_Resolution
False,LEFT,733.3333348,DOWN,-533.573,,,LEFT,557.5661999999966,2019-12-11 14:23:42.893499,2019-12-11 14:23:43.659532,4,5.734949833333333,S16,Conflict_Resolution
True,RIGHT,1233.3333358,,,,,LEFT,1567.4315999999635,2019-12-11 14:23:44.916157,2019-12-11 14:23:46.691463,5,5.734949833333333,S16,Conflict_Resolution
False,LEFT,950.0000019,,,,,LEFT,569.3853000000217,2019-12-11 14:23:47.657522,2019-12-11 14:23:48.434070,6,5.734949833333333,S16,Conflict_Resolution
True,LEFT,1300.0000026,,,,,Time_Max_Exceeded,1500.0579000000016,2019-12-11 14:23:49.752042,2019-12-11 14:23:51.251449,7,5.734949833333333,S16,Conflict_Resolution
True,RIGHT,1283.3333359,LEFT,-1024.292,,,Time_Max_Exceeded,1500.0807000000123,2019-12-11 14:23:52.552004,2019-12-11 14:23:54.052003,8,5.734949833333333,S16,Conflict_Resolution
True,LEFT,1166.666669,,,,,LEFT,950.5361000000221,2019-12-11 14:23:55.236342,2019-12-11 14:23:56.394579,9,5.734949833333333,S16,Conflict_Resolution
False,LEFT,1466.6666696,,,,,LEFT,697.4089000000276,2019-12-11 14:23:57.881483,2019-12-11 14:23:58.785692,10,5.734949833333333,S16,Conflict_Resolution
False,LEFT,683.3333347,,,,,LEFT,469.1990999999689,2019-12-11 14:23:59.493792,2019-12-11 14:24:00.169644,11,5.734949833333333,S16,Conflict_Resolution
False,RIGHT,1133.3333356,,,,,RIGHT,675.8290999999872,2019-12-11 14:24:01.319315,2019-12-11 14:24:02.202504,12,5.734949833333333,S16,Conflict_Resolution
True,LEFT,1250.0000025,,,,,LEFT,1320.1404000000139,2019-12-11 14:24:03.474839,2019-12-11 14:24:05.002423,13,5.734949833333333,S16,Conflict_Resolution
True,RIGHT,733.3333348,,,,,Time_Max_Exceeded,1500.073499999985,2019-12-11 14:24:05.755913,2019-12-11 14:24:07.255922,14,5.734949833333333,S16,Conflict_Resolution
True,RIGHT,1050.0000021,,,,,LEFT,846.7021999999815,2019-12-11 14:24:08.324957,2019-12-11 14:24:09.379235,15,5.734949833333333,S16,Conflict_Resolution
True,LEFT,916.6666685,,,,,LEFT,1045.5709999999954,2019-12-11 14:24:10.318006,2019-12-11 14:24:11.571348,16,5.734949833333333,S16,Conflict_Resolution
True,RIGHT,1100.0000022,,,,,LEFT,1102.2232000000258,2019-12-11 14:24:12.693318,2019-12-11 14:24:14.001796,17,5.734949833333333,S16,Conflict_Resolution
False,RIGHT,1216.6666691,,,,,RIGHT,825.7038000000421,2019-12-11 14:24:15.241568,2019-12-11 14:24:16.273978,18,5.734949833333333,S16,Conflict_Resolution
True,LEFT,1016.6666687000001,,,,,LEFT,1207.6151999999638,2019-12-11 14:24:17.308122,2019-12-11 14:24:18.722434,19,5.734949833333333,S16,Conflict_Resolution
True,LEFT,566.6666678,,,,,LEFT,978.4184999999752,2019-12-11 14:24:19.312808,2019-12-11 14:24:20.497753,20,5.734949833333333,S16,Conflict_Resolution
False,RIGHT,983.3333353,,,,,RIGHT,696.6697999999951,2019-12-11 14:24:21.499051,2019-12-11 14:24:22.401715,21,5.734949833333333,S16,Conflict_Resolution
True,RIGHT,833.333335,,,,,RIGHT,1302.56200000008,2019-12-11 14:24:23.252906,2019-12-11 14:24:24.761975,22,5.734949833333333,S16,Conflict_Resolution
True,RIGHT,533.3333344,,,,,RIGHT,859.2611000000261,2019-12-11 14:24:25.320364,2019-12-11 14:24:26.385808,23,5.734949833333333,S16,Conflict_Resolution
False,LEFT,1416.6666695000001,,,,,LEFT,642.6946999999927,2019-12-11 14:24:27.824924,2019-12-11 14:24:28.675157,24,5.734949833333333,S16,Conflict_Resolution
False,LEFT,1250.0000025,,,,,LEFT,550.4118000000062,2019-12-11 14:24:29.948965,2019-12-11 14:24:30.707209,25,5.734949833333333,S16,Conflict_Resolution
True,LEFT,900.0000018000001,,,,,LEFT,1043.4454999999616,2019-12-11 14:24:31.623784,2019-12-11 14:24:32.874447,26,5.734949833333333,S16,Conflict_Resolution
True,LEFT,1216.6666691,,,,,LEFT,615.7008000000133,2019-12-11 14:24:34.115474,2019-12-11 14:24:34.937923,27,5.734949833333333,S16,Conflict_Resolution
True,LEFT,633.3333346000001,,,,,LEFT,506.3973999999689,2019-12-11 14:24:35.592435,2019-12-11 14:24:36.307530,28,5.734949833333333,S16,Conflict_Resolution
True,RIGHT,900.0000018000001,,,,,RIGHT,773.3819999999696,2019-12-11 14:24:37.230180,2019-12-11 14:24:38.209773,29,5.734949833333333,S16,Conflict_Resolution
True,LEFT,1500.000003,,,,,LEFT,492.51300000003084,2019-12-11 14:24:39.735009,2019-12-11 14:24:40.434278,30,5.734949833333333,S16,Conflict_Resolution
False,LEFT,783.3333349000001,,,,,LEFT,703.6428000000114,2019-12-11 14:24:41.235738,2019-12-11 14:24:42.146953,31,5.734949833333333,S16,Conflict_Resolution
False,RIGHT,583.3333345,,,,,RIGHT,610.3932999999415,2019-12-11 14:24:42.752330,2019-12-11 14:24:43.569744,32,5.734949833333333,S16,Conflict_Resolution
True,LEFT,1000.000002,,,,,LEFT,530.6943000000501,2019-12-11 14:24:44.592223,2019-12-11 14:24:45.331393,33,5.734949833333333,S16,Conflict_Resolution
False,LEFT,816.6666683,,,,,LEFT,458.891900000026,2019-12-11 14:24:46.167859,2019-12-11 14:24:46.834125,34,5.734949833333333,S16,Conflict_Resolution
False,LEFT,1000.000002,,,,,LEFT,441.25770000005105,2019-12-11 14:24:47.849539,2019-12-11 14:24:48.498011,35,5.734949833333333,S16,Conflict_Resolution
False,LEFT,1366.6666694,,,,,LEFT,561.5473000000293,2019-12-11 14:24:49.889800,2019-12-11 14:24:50.659456,36,5.734949833333333,S16,Conflict_Resolution
True,LEFT,783.3333349000001,,,,,LEFT,860.4162999999971,2019-12-11 14:24:51.463317,2019-12-11 14:24:52.530201,37,5.734949833333333,S16,Conflict_Resolution
True,LEFT,1050.0000021,,,,,LEFT,664.771299999984,2019-12-11 14:24:53.602548,2019-12-11 14:24:54.475302,38,5.734949833333333,S16,Conflict_Resolution
True,RIGHT,950.0000019,,,,,RIGHT,713.8429999999971,2019-12-11 14:24:55.441035,2019-12-11 14:24:56.361822,39,5.734949833333333,S16,Conflict_Resolution
False,RIGHT,1316.6666693,,,,,RIGHT,556.9453000000522,2019-12-11 14:24:57.702430,2019-12-11 14:24:58.466070,40,5.734949833333333,S16,Conflict_Resolution
False,LEFT,900.0000018000001,,,,,LEFT,607.6239999999871,2019-12-11 14:24:59.387620,2019-12-11 14:25:00.204984,41,5.734949833333333,S16,Conflict_Resolution
False,RIGHT,633.3333346000001,,,,,RIGHT,487.36859999996796,2019-12-11 14:25:00.860245,2019-12-11 14:25:01.554367,42,5.734949833333333,S16,Conflict_Resolution
False,LEFT,1266.6666692000001,,,,,LEFT,501.20379999998477,2019-12-11 14:25:02.845961,2019-12-11 14:25:03.554088,43,5.734949833333333,S16,Conflict_Resolution
True,LEFT,1066.6666688,,,,,LEFT,788.7567999999874,2019-12-11 14:25:04.646212,2019-12-11 14:25:05.642021,44,5.734949833333333,S16,Conflict_Resolution
True,RIGHT,1483.3333363,,,,,RIGHT,784.7302999999783,2019-12-11 14:25:07.146525,2019-12-11 14:25:08.137642,45,5.734949833333333,S16,Conflict_Resolution
False,RIGHT,1416.6666695000001,,,,,RIGHT,562.7468000000135,2019-12-11 14:25:09.576301,2019-12-11 14:25:10.346465,46,5.734949833333333,S16,Conflict_Resolution
True,LEFT,866.6666684,,,,,LEFT,1016.4159999999356,2019-12-11 14:25:11.235343,2019-12-11 14:25:12.458969,47,5.734949833333333,S16,Conflict_Resolution
False,RIGHT,1100.0000022,,,,,RIGHT,532.7500999999302,2019-12-11 14:25:13.582224,2019-12-11 14:25:14.322042,48,5.734949833333333,S16,Conflict_Resolution
False,LEFT,516.6666677000001,,,,,LEFT,508.4606000000349,2019-12-11 14:25:14.863076,2019-12-11 14:25:15.577656,49,5.734949833333333,S16,Conflict_Resolution
True,RIGHT,1266.6666692000001,,,,,RIGHT,622.7008999999271,2019-12-11 14:25:16.868892,2019-12-11 14:25:17.698666,50,5.734949833333333,S16,Conflict_Resolution
False,LEFT,1100.0000022,,,,,LEFT,468.75680000005104,2019-12-11 14:25:18.822183,2019-12-11 14:25:19.499436,51,5.734949833333333,S16,Conflict_Resolution
True,RIGHT,1216.6666691,,,,,RIGHT,558.5509000000002,2019-12-11 14:25:20.740378,2019-12-11 14:25:21.506359,52,5.734949833333333,S16,Conflict_Resolution
True,RIGHT,1133.3333356,,,,,RIGHT,774.8500999999806,2019-12-11 14:25:22.660364,2019-12-11 14:25:23.643315,53,5.734949833333333,S16,Conflict_Resolution
False,RIGHT,1483.3333363,,,,,RIGHT,572.4353000000519,2019-12-11 14:25:25.151194,2019-12-11 14:25:25.929840,54,5.734949833333333,S16,Conflict_Resolution
True,LEFT,1366.6666694,,,,,LEFT,579.5838999999887,2019-12-11 14:25:27.319986,2019-12-11 14:25:28.107604,55,5.734949833333333,S16,Conflict_Resolution
True,RIGHT,1183.3333357000001,,,,,RIGHT,882.2889000000487,2019-12-11 14:25:29.312866,2019-12-11 14:25:30.402991,56,5.734949833333333,S16,Conflict_Resolution
True,RIGHT,1150.0000023,,,,,RIGHT,737.4116999999387,2019-12-11 14:25:31.577399,2019-12-11 14:25:32.522175,57,5.734949833333333,S16,Conflict_Resolution
True,RIGHT,1333.3333360000001,,,,,RIGHT,744.9967000000015,2019-12-11 14:25:33.874572,2019-12-11 14:25:34.827182,58,5.734949833333333,S16,Conflict_Resolution
False,RIGHT,1150.0000023,,,,,LEFT,610.5675000000019,2019-12-11 14:25:36.000606,2019-12-11 14:25:36.818613,59,5.734949833333333,S16,Conflict_Resolution
True,RIGHT,500.000001,,,,,RIGHT,732.3476000000255,2019-12-11 14:25:37.342795,2019-12-11 14:25:38.282630,60,5.734949833333333,S16,Conflict_Resolution
False,LEFT,666.6666680000001,,,,,LEFT,541.4683000000196,2019-12-11 14:25:38.973997,2019-12-11 14:25:39.722024,61,5.734949833333333,S16,Conflict_Resolution
False,RIGHT,1333.3333360000001,,,,,RIGHT,365.68799999997736,2019-12-11 14:25:41.077649,2019-12-11 14:25:41.649728,62,5.734949833333333,S16,Conflict_Resolution
False,LEFT,1316.6666693,,,,,LEFT,578.7275000000136,2019-12-11 14:25:42.984462,2019-12-11 14:25:43.770543,63,5.734949833333333,S16,Conflict_Resolution
False,LEFT,866.6666684,,,,,LEFT,494.28119999993214,2019-12-11 14:25:44.660821,2019-12-11 14:25:45.362141,64,5.734949833333333,S16,Conflict_Resolution
True,RIGHT,1033.3333354000001,,,,,RIGHT,607.0433999999523,2019-12-11 14:25:46.419946,2019-12-11 14:25:47.234239,65,5.734949833333333,S16,Conflict_Resolution
False,RIGHT,1466.6666696,,,,,RIGHT,556.0345000000098,2019-12-11 14:25:48.719387,2019-12-11 14:25:49.482011,66,5.734949833333333,S16,Conflict_Resolution
False,RIGHT,550.0000011,,,,,RIGHT,694.1497000000254,2019-12-11 14:25:50.053058,2019-12-11 14:25:50.955151,67,5.734949833333333,S16,Conflict_Resolution
False,LEFT,716.6666681,,,,,LEFT,581.1650000000554,2019-12-11 14:25:51.693780,2019-12-11 14:25:52.481824,68,5.734949833333333,S16,Conflict_Resolution
True,RIGHT,700.0000014,,,,,RIGHT,646.3059999999814,2019-12-11 14:25:53.204419,2019-12-11 14:25:54.058600,69,5.734949833333333,S16,Conflict_Resolution
False,RIGHT,900.0000018000001,,,,,RIGHT,495.8789000000934,2019-12-11 14:25:54.979673,2019-12-11 14:25:55.682651,70,5.734949833333333,S16,Conflict_Resolution
False,RIGHT,1050.0000021,,,,,RIGHT,433.01770000005035,2019-12-11 14:25:56.753810,2019-12-11 14:25:57.394727,71,5.734949833333333,S16,Conflict_Resolution
False,LEFT,766.6666682,,,,,LEFT,560.5146999999988,2019-12-11 14:25:58.178999,2019-12-11 14:25:58.946295,72,5.734949833333333,S16,Conflict_Resolution
True,LEFT,733.3333348,,,,,LEFT,645.7728000000316,2019-12-11 14:25:59.701109,2019-12-11 14:26:00.554137,73,5.734949833333333,S16,Conflict_Resolution
True,RIGHT,1083.3333355,,,,,RIGHT,628.1911999999465,2019-12-11 14:26:01.662873,2019-12-11 14:26:02.499172,74,5.734949833333333,S16,Conflict_Resolution
True,LEFT,716.6666681,,,,,LEFT,507.1854999999914,2019-12-11 14:26:03.240367,2019-12-11 14:26:03.955211,75,5.734949833333333,S16,Conflict_Resolution
True,LEFT,950.0000019,,,,,LEFT,496.8903000000182,2019-12-11 14:26:04.921936,2019-12-11 14:26:05.625841,76,5.734949833333333,S16,Conflict_Resolution
True,LEFT,1116.6666689,,,,,LEFT,469.54170000003614,2019-12-11 14:26:06.765700,2019-12-11 14:26:07.442047,77,5.734949833333333,S16,Conflict_Resolution
True,LEFT,533.3333344,,,,,LEFT,451.6846000000214,2019-12-11 14:26:07.999565,2019-12-11 14:26:08.658322,78,5.734949833333333,S16,Conflict_Resolution
False,RIGHT,733.3333348,,,,,RIGHT,571.9556000000239,2019-12-11 14:26:09.415250,2019-12-11 14:26:10.193683,79,5.734949833333333,S16,Conflict_Resolution
True,RIGHT,783.3333349000001,,,,,RIGHT,577.468700000054,2019-12-11 14:26:10.994130,2019-12-11 14:26:11.777877,80,5.734949833333333,S16,Conflict_Resolution
True,RIGHT,683.3333347,,,,,RIGHT,573.7513999999919,2019-12-11 14:26:12.485481,2019-12-11 14:26:13.267515,81,5.734949833333333,S16,Conflict_Resolution
False,RIGHT,750.0000015,,,,,RIGHT,392.3770000000104,2019-12-11 14:26:14.043441,2019-12-11 14:26:14.642569,82,5.734949833333333,S16,Conflict_Resolution
True,RIGHT,750.0000015,,,,,RIGHT,419.30600000000595,2019-12-11 14:26:15.416500,2019-12-11 14:26:16.043552,83,5.734949833333333,S16,Conflict_Resolution
True,RIGHT,650.0000013,,,,,RIGHT,517.2203000000763,2019-12-11 14:26:16.717752,2019-12-11 14:26:17.442047,84,5.734949833333333,S16,Conflict_Resolution
False,RIGHT,650.0000013,,,,,RIGHT,545.8342000000584,2019-12-11 14:26:18.113273,2019-12-11 14:26:18.865884,85,5.734949833333333,S16,Conflict_Resolution
True,LEFT,1200.0000024,,,,,LEFT,679.7611000000643,2019-12-11 14:26:20.083635,2019-12-11 14:26:20.971500,86,5.734949833333333,S16,Conflict_Resolution
False,LEFT,566.6666678,,,,,LEFT,553.1806999999844,2019-12-11 14:26:21.562126,2019-12-11 14:26:22.322314,87,5.734949833333333,S16,Conflict_Resolution
False,RIGHT,1233.3333358,,,,,RIGHT,799.482600000033,2019-12-11 14:26:23.580186,2019-12-11 14:26:24.587477,88,5.734949833333333,S16,Conflict_Resolution
False,LEFT,616.6666679,,,,,LEFT,488.3175999999594,2019-12-11 14:26:25.227777,2019-12-11 14:26:25.923543,89,5.734949833333333,S16,Conflict_Resolution
True,LEFT,1466.6666696,,,,,LEFT,613.9987999999903,2019-12-11 14:26:27.413155,2019-12-11 14:26:28.235510,90,5.734949833333333,S16,Conflict_Resolution
False,RIGHT,683.3333347,,,,,RIGHT,596.3974000000007,2019-12-11 14:26:28.934842,2019-12-11 14:26:29.738684,91,5.734949833333333,S16,Conflict_Resolution
False,RIGHT,700.0000014,,,,,RIGHT,595.8239999999932,2019-12-11 14:26:30.463856,2019-12-11 14:26:31.267199,92,5.734949833333333,S16,Conflict_Resolution
False,RIGHT,833.333335,,,,,RIGHT,526.4814999999317,2019-12-11 14:26:32.124650,2019-12-11 14:26:32.857803,93,5.734949833333333,S16,Conflict_Resolution
True,RIGHT,1383.3333361,,,,,RIGHT,954.1966000000457,2019-12-11 14:26:34.264678,2019-12-11 14:26:35.426227,94,5.734949833333333,S16,Conflict_Resolution
True,RIGHT,800.0000016,,,,,RIGHT,561.7363999999725,2019-12-11 14:26:36.249183,2019-12-11 14:26:37.019195,95,5.734949833333333,S16,Conflict_Resolution
True,RIGHT,983.3333353,,,,,RIGHT,572.2244999999475,2019-12-11 14:26:38.022665,2019-12-11 14:26:38.802067,96,5.734949833333333,S16,Conflict_Resolution
True,RIGHT,1316.6666693,,,,,RIGHT,538.7033000000656,2019-12-11 14:26:40.136220,2019-12-11 14:26:40.882446,97,5.734949833333333,S16,Conflict_Resolution
True,RIGHT,1433.3333362,,,,,RIGHT,477.41550000000643,2019-12-11 14:26:42.333777,2019-12-11 14:26:43.018211,98,5.734949833333333,S16,Conflict_Resolution
False,RIGHT,600.0000012,,,,,RIGHT,657.4283999998443,2019-12-11 14:26:43.641617,2019-12-11 14:26:44.506279,99,5.734949833333333,S16,Conflict_Resolution
True,RIGHT,850.0000017,,,,,RIGHT,488.1024000001162,2019-12-11 14:26:45.379532,2019-12-11 14:26:46.073722,100,5.734949833333333,S16,Conflict_Resolution
False,RIGHT,1266.6666692000001,,,,,RIGHT,469.9121000001014,2019-12-11 14:26:47.357625,2019-12-11 14:26:48.033966,101,5.734949833333333,S16,Conflict_Resolution
True,LEFT,1450.0000029,,,,,LEFT,583.9926000001014,2019-12-11 14:26:49.506879,2019-12-11 14:26:50.297699,102,5.734949833333333,S16,Conflict_Resolution
False,RIGHT,950.0000019,,,,,RIGHT,395.52550000007614,2019-12-11 14:26:51.271665,2019-12-11 14:26:51.874631,103,5.734949833333333,S16,Conflict_Resolution
True,LEFT,1100.0000022,,,,,LEFT,571.1584999999104,2019-12-11 14:26:52.992504,2019-12-11 14:26:53.771357,104,5.734949833333333,S16,Conflict_Resolution
False,LEFT,966.6666686,,,,,LEFT,488.59010000001035,2019-12-11 14:26:54.763055,2019-12-11 14:26:55.458022,105,5.734949833333333,S16,Conflict_Resolution
True,LEFT,683.3333347,,,,,LEFT,480.56610000003275,2019-12-11 14:26:56.162164,2019-12-11 14:26:56.851368,106,5.734949833333333,S16,Conflict_Resolution
True,RIGHT,1466.6666696,,,,,RIGHT,643.5195999999905,2019-12-11 14:26:58.335877,2019-12-11 14:26:59.186325,107,5.734949833333333,S16,Conflict_Resolution
False,RIGHT,1283.3333359,,,,,RIGHT,631.6776999999547,2019-12-11 14:27:00.491454,2019-12-11 14:27:01.329935,108,5.734949833333333,S16,Conflict_Resolution
True,LEFT,616.6666679,,,,,LEFT,484.61249999991196,2019-12-11 14:27:01.966233,2019-12-11 14:27:02.659483,109,5.734949833333333,S16,Conflict_Resolution
True,RIGHT,883.3333351,,,,,RIGHT,534.9220999999034,2019-12-11 14:27:03.564684,2019-12-11 14:27:04.306486,110,5.734949833333333,S16,Conflict_Resolution
False,RIGHT,500.000001,,,,,RIGHT,478.51490000016383,2019-12-11 14:27:04.828481,2019-12-11 14:27:05.514644,111,5.734949833333333,S16,Conflict_Resolution
True,RIGHT,933.3333352,,,,,RIGHT,594.8623000001589,2019-12-11 14:27:06.472090,2019-12-11 14:27:07.274360,112,5.734949833333333,S16,Conflict_Resolution
False,RIGHT,1383.3333361,,,,,RIGHT,432.87439999994604,2019-12-11 14:27:08.682220,2019-12-11 14:27:09.322539,113,5.734949833333333,S16,Conflict_Resolution
False,LEFT,1166.666669,,,,,LEFT,578.3120999999483,2019-12-11 14:27:10.512755,2019-12-11 14:27:11.297996,114,5.734949833333333,S16,Conflict_Resolution
True,LEFT,1416.6666695000001,,,,,LEFT,488.1040000000212,2019-12-11 14:27:12.739716,2019-12-11 14:27:13.433910,115,5.734949833333333,S16,Conflict_Resolution
False,RIGHT,800.0000016,,,,,RIGHT,539.1753999999764,2019-12-11 14:27:14.256187,2019-12-11 14:27:15.002709,116,5.734949833333333,S16,Conflict_Resolution
False,LEFT,1016.6666687000001,,,,,LEFT,574.880099999973,2019-12-11 14:27:16.036378,2019-12-11 14:27:16.819307,117,5.734949833333333,S16,Conflict_Resolution
False,LEFT,1350.0000027,,,,,LEFT,586.3206000001355,2019-12-11 14:27:18.193387,2019-12-11 14:27:18.985940,118,5.734949833333333,S16,Conflict_Resolution
True,LEFT,1400.0000028,,,,,LEFT,723.6583999999766,2019-12-11 14:27:20.407364,2019-12-11 14:27:21.338233,119,5.734949833333333,S16,Conflict_Resolution
False,LEFT,1066.6666688,,,,,LEFT,438.5195999998359,2019-12-11 14:27:22.428096,2019-12-11 14:27:23.073985,120,5.734949833333333,S16,Conflict_Resolution
False,RIGHT,850.0000017,,,,,RIGHT,597.8336000000581,2019-12-11 14:27:23.941831,2019-12-11 14:27:24.746632,121,5.734949833333333,S16,Conflict_Resolution
False,RIGHT,1033.3333354000001,,,,,LEFT,407.6906999998755,2019-12-11 14:27:25.804138,2019-12-11 14:27:26.418094,122,5.734949833333333,S16,Conflict_Resolution
True,LEFT,816.6666683,,,,,LEFT,503.5978000000796,2019-12-11 14:27:27.251903,2019-12-11 14:27:27.962003,123,5.734949833333333,S16,Conflict_Resolution
False,RIGHT,1083.3333355,,,,,RIGHT,421.96960000001127,2019-12-11 14:27:29.069365,2019-12-11 14:27:29.697677,124,5.734949833333333,S16,Conflict_Resolution
True,LEFT,583.3333345,,,,,LEFT,465.59160000015254,2019-12-11 14:27:30.305397,2019-12-11 14:27:30.979313,125,5.734949833333333,S16,Conflict_Resolution
True,LEFT,516.6666677000001,,,,,LEFT,564.4559999998364,2019-12-11 14:27:31.518856,2019-12-11 14:27:32.291169,126,5.734949833333333,S16,Conflict_Resolution
True,LEFT,850.0000017,,,,,LEFT,480.2493999998205,2019-12-11 14:27:33.163456,2019-12-11 14:27:33.849848,127,5.734949833333333,S16,Conflict_Resolution
True,RIGHT,633.3333346000001,,,,,RIGHT,615.6913999998324,2019-12-11 14:27:34.507404,2019-12-11 14:27:35.329635,128,5.734949833333333,S16,Conflict_Resolution
False,RIGHT,1183.3333357000001,,,,,RIGHT,583.5205999999289,2019-12-11 14:27:36.531920,2019-12-11 14:27:37.323117,129,5.734949833333333,S16,Conflict_Resolution
False,LEFT,533.3333344,,,,,LEFT,649.3819999998323,2019-12-11 14:27:37.873608,2019-12-11 14:27:38.731045,130,5.734949833333333,S16,Conflict_Resolution
False,LEFT,583.3333345,,,,,LEFT,441.3131000001158,2019-12-11 14:27:39.338397,2019-12-11 14:27:39.985761,131,5.734949833333333,S16,Conflict_Resolution
False,LEFT,1050.0000021,,,,,LEFT,398.55999999986125,2019-12-11 14:27:41.060214,2019-12-11 14:27:41.666595,132,5.734949833333333,S16,Conflict_Resolution
False,LEFT,850.0000017,,,,,LEFT,365.8009000000675,2019-12-11 14:27:42.533927,2019-12-11 14:27:43.107429,133,5.734949833333333,S16,Conflict_Resolution
True,RIGHT,1416.6666695000001,,,,,RIGHT,607.8204000000369,2019-12-11 14:27:44.547103,2019-12-11 14:27:45.361840,134,5.734949833333333,S16,Conflict_Resolution
False,LEFT,633.3333346000001,,,,,LEFT,528.2161999998607,2019-12-11 14:27:46.018734,2019-12-11 14:27:46.754684,135,5.734949833333333,S16,Conflict_Resolution
False,LEFT,1400.0000028,,,,,LEFT,512.1008000000984,2019-12-11 14:27:48.171058,2019-12-11 14:27:48.890410,136,5.734949833333333,S16,Conflict_Resolution
False,LEFT,1216.6666691,,,,,LEFT,426.067600000124,2019-12-11 14:27:50.128805,2019-12-11 14:27:50.762681,137,5.734949833333333,S16,Conflict_Resolution
False,RIGHT,533.3333344,,,,,RIGHT,628.9755999998761,2019-12-11 14:27:51.318197,2019-12-11 14:27:52.154124,138,5.734949833333333,S16,Conflict_Resolution
True,LEFT,1266.6666692000001,,,,,LEFT,568.9969000000019,2019-12-11 14:27:53.441761,2019-12-11 14:27:54.218104,139,5.734949833333333,S16,Conflict_Resolution
False,RIGHT,783.3333349000001,,,,,RIGHT,436.45010000000184,2019-12-11 14:27:55.022980,2019-12-11 14:27:55.667034,140,5.734949833333333,S16,Conflict_Resolution
True,LEFT,766.6666682,,,,,LEFT,442.24290000011024,2019-12-11 14:27:56.457248,2019-12-11 14:27:57.106932,141,5.734949833333333,S16,Conflict_Resolution
True,RIGHT,1000.000002,,,,,RIGHT,370.55659999987256,2019-12-11 14:27:58.129106,2019-12-11 14:27:58.705994,142,5.734949833333333,S16,Conflict_Resolution
False,RIGHT,1366.6666694,,,,,RIGHT,522.9973000000427,2019-12-11 14:28:00.096494,2019-12-11 14:28:00.826286,143,5.734949833333333,S16,Conflict_Resolution
True,RIGHT,583.3333345,,,,,RIGHT,1475.0370000001567,2019-12-11 14:28:01.432202,2019-12-11 14:28:03.114661,144,5.734949833333333,S16,Conflict_Resolution
False,LEFT,916.6666685,,,,,LEFT,556.6515999998956,2019-12-11 14:28:04.054175,2019-12-11 14:28:04.817900,145,5.734949833333333,S16,Conflict_Resolution
True,RIGHT,600.0000012,,,,,RIGHT,891.5862999999717,2019-12-11 14:28:05.439785,2019-12-11 14:28:06.539510,146,5.734949833333333,S16,Conflict_Resolution
False,RIGHT,1000.000002,,,,,RIGHT,462.25440000011986,2019-12-11 14:28:07.557051,2019-12-11 14:28:08.226556,147,5.734949833333333,S16,Conflict_Resolution
False,LEFT,1200.0000024,,,,,LEFT,511.0881000000518,2019-12-11 14:28:09.444258,2019-12-11 14:28:10.161722,148,5.734949833333333,S16,Conflict_Resolution
True,RIGHT,550.0000011,,,,,RIGHT,729.6395000000757,2019-12-11 14:28:10.729173,2019-12-11 14:28:11.665978,149,5.734949833333333,S16,Conflict_Resolution
False,RIGHT,933.3333352,,,,,RIGHT,381.9656999999097,2019-12-11 14:28:12.621424,2019-12-11 14:28:13.210491,150,5.734949833333333,S16,Conflict_Resolution
False,RIGHT,883.3333351,,,,,RIGHT,507.76680000012675,2019-12-11 14:28:14.111670,2019-12-11 14:28:14.827456,151,5.734949833333333,S16,Conflict_Resolution
False,RIGHT,1433.3333362,,,,,RIGHT,364.7894999999153,2019-12-11 14:28:16.286250,2019-12-11 14:28:16.858088,152,5.734949833333333,S16,Conflict_Resolution
False,LEFT,1150.0000023,,,,,LEFT,589.4055000001117,2019-12-11 14:28:18.030212,2019-12-11 14:28:18.826670,153,5.734949833333333,S16,Conflict_Resolution
True,LEFT,1350.0000027,,,,,LEFT,835.4599000001599,2019-12-11 14:28:20.199577,2019-12-11 14:28:21.242078,154,5.734949833333333,S16,Conflict_Resolution
True,LEFT,1150.0000023,,,,,LEFT,610.9579000001304,2019-12-11 14:28:22.416696,2019-12-11 14:28:23.235028,155,5.734949833333333,S16,Conflict_Resolution
True,LEFT,1316.6666693,,,,,LEFT,561.9478999999501,2019-12-11 14:28:24.569511,2019-12-11 14:28:25.337853,156,5.734949833333333,S16,Conflict_Resolution
True,RIGHT,1366.6666694,,,,,LEFT,353.6430999999993,2019-12-11 14:28:26.721847,2019-12-11 14:28:27.281910,157,5.734949833333333,S16,Conflict_Resolution
False,LEFT,1300.0000026,,,,,LEFT,501.5556999999262,2019-12-11 14:28:28.605873,2019-12-11 14:28:29.314516,158,5.734949833333333,S16,Conflict_Resolution
False,LEFT,1500.000003,,,,,LEFT,635.7892000000902,2019-12-11 14:28:30.839408,2019-12-11 14:28:31.683086,159,5.734949833333333,S16,Conflict_Resolution
True,LEFT,666.6666680000001,,,,,LEFT,525.9209999999257,2019-12-11 14:28:32.373785,2019-12-11 14:28:33.106092,160,5.734949833333333,S16,Conflict_Resolution
