Stimulus_Side,ITI,Previous_Response,Previous_RT,Response,RT,Trial_Time_Onset,Trial_Time_End,Trial_Order,Participant,Task
LEFT,883.3333351,,,LEFT,267.6358,45:38.9,45:39.4,1,S1,ResponseSelection
RIGHT,1150.000002,,,RIGHT,283.3645,45:40.6,45:41.1,2,S1,ResponseSelection
RIGHT,1133.333336,,,RIGHT,344.5281,45:42.3,45:42.8,3,S1,ResponseSelection
LEFT,850.0000017,,,LEFT,272.3707,45:43.7,45:44.2,4,S1,ResponseSelection
RIGHT,1383.333336,,,RIGHT,279.7515,45:45.6,45:46.1,5,S1,ResponseSelection
LEFT,783.3333349,,,LEFT,264.202,45:46.9,45:47.4,6,S1,ResponseSelection
LEFT,516.6666677,,,LEFT,343.3322,45:47.9,45:48.5,7,S1,ResponseSelection
RIGHT,800.0000016,,,RIGHT,283.3039,45:49.3,45:49.8,8,S1,ResponseSelection
RIGHT,766.6666682,,,RIGHT,343.7197,45:50.6,45:51.2,9,S1,ResponseSelection
LEFT,750.0000015,,,LEFT,330.1516,45:51.9,45:52.5,10,S1,ResponseSelection
LEFT,1233.333336,,,LEFT,334.3461,45:53.8,45:54.3,11,S1,ResponseSelection
LEFT,1333.333336,,,LEFT,355.7909,45:55.7,45:56.2,12,S1,ResponseSelection
RIGHT,616.6666679,,,RIGHT,287.9739,45:56.9,45:57.4,13,S1,ResponseSelection
RIGHT,566.6666678,,,RIGHT,323.8202,45:58.0,45:58.5,14,S1,ResponseSelection
RIGHT,1350.000003,,,RIGHT,319.092,45:59.9,46:00.4,15,S1,ResponseSelection
LEFT,1300.000003,,,LEFT,409.3315,46:01.7,46:02.4,16,S1,ResponseSelection
RIGHT,1166.666669,,,RIGHT,364.3693,46:03.6,46:04.1,17,S1,ResponseSelection
LEFT,583.3333345,,,LEFT,413.6288,46:04.8,46:05.4,18,S1,ResponseSelection
LEFT,1166.666669,,,LEFT,489.9532,46:06.6,46:07.3,19,S1,ResponseSelection
LEFT,800.0000016,,,LEFT,445.3148,46:08.1,46:08.8,20,S1,ResponseSelection
LEFT,1100.000002,,,LEFT,343.4725,46:09.9,46:10.4,21,S1,ResponseSelection
RIGHT,1116.666669,,,RIGHT,296.0385,46:11.6,46:12.1,22,S1,ResponseSelection
RIGHT,1200.000002,,,RIGHT,405.6064,46:13.3,46:13.9,23,S1,ResponseSelection
RIGHT,533.3333344,,,RIGHT,339.5568,46:14.5,46:15.1,24,S1,ResponseSelection
LEFT,1316.666669,,,LEFT,286.049,46:16.4,46:16.9,25,S1,ResponseSelection
RIGHT,933.3333352,,,RIGHT,294.5722,46:17.9,46:18.4,26,S1,ResponseSelection
LEFT,700.0000014,,,LEFT,355.3362,46:19.1,46:19.7,27,S1,ResponseSelection
LEFT,1500.000003,,,LEFT,289.1056,46:21.2,46:21.7,28,S1,ResponseSelection
LEFT,1483.333336,,,LEFT,281.2869,46:23.2,46:23.7,29,S1,ResponseSelection
LEFT,1050.000002,,,LEFT,325.6861,46:24.8,46:25.3,30,S1,ResponseSelection
LEFT,966.6666686,,,LEFT,310.1253,46:26.3,46:26.8,31,S1,ResponseSelection
RIGHT,1483.333336,,,RIGHT,283.0246,46:28.3,46:28.8,32,S1,ResponseSelection
LEFT,1066.666669,,,LEFT,533.1259,46:29.9,46:30.7,33,S1,ResponseSelection
RIGHT,1400.000003,,,RIGHT,361.2745,46:32.1,46:32.7,34,S1,ResponseSelection
RIGHT,966.6666686,,,RIGHT,330.3881,46:33.7,46:34.2,35,S1,ResponseSelection
RIGHT,750.0000015,,,RIGHT,471.1596,46:35.0,46:35.7,36,S1,ResponseSelection
RIGHT,1333.333336,,,RIGHT,396.3892,46:37.1,46:37.7,37,S1,ResponseSelection
LEFT,650.0000013,,,LEFT,395.5639,46:38.3,46:39.0,38,S1,ResponseSelection
RIGHT,716.6666681,,,RIGHT,435.2786,46:39.7,46:40.3,39,S1,ResponseSelection
LEFT,900.0000018,,,LEFT,426.3884,46:41.3,46:41.9,40,S1,ResponseSelection
RIGHT,783.3333349,,,RIGHT,428.0833,46:42.7,46:43.4,41,S1,ResponseSelection
RIGHT,1250.000003,,,RIGHT,414.1412,46:44.6,46:45.3,42,S1,ResponseSelection
RIGHT,1433.333336,,,RIGHT,395.6717,46:46.7,46:47.3,43,S1,ResponseSelection
RIGHT,1500.000003,,,RIGHT,429.7431,46:48.9,46:49.5,44,S1,ResponseSelection
LEFT,1283.333336,,,LEFT,285.3908,46:50.8,46:51.3,45,S1,ResponseSelection
RIGHT,833.333335,,,RIGHT,429.2976,46:52.2,46:52.9,46,S1,ResponseSelection
LEFT,683.3333347,,,LEFT,386.4285,46:53.6,46:54.2,47,S1,ResponseSelection
LEFT,1433.333336,,,LEFT,331.6484,46:55.6,46:56.2,48,S1,ResponseSelection
LEFT,766.6666682,,,LEFT,412.0884,46:57.0,46:57.6,49,S1,ResponseSelection
RIGHT,666.666668,,,RIGHT,305.6349,46:58.3,46:58.8,50,S1,ResponseSelection
LEFT,1133.333336,,,LEFT,274.9841,47:00.0,47:00.4,51,S1,ResponseSelection
LEFT,833.333335,,,LEFT,372.1781,47:01.3,47:01.9,52,S1,ResponseSelection
RIGHT,1300.000003,,,RIGHT,303.1803,47:03.2,47:03.7,53,S1,ResponseSelection
LEFT,1416.66667,,,LEFT,272.9963,47:05.2,47:05.6,54,S1,ResponseSelection
RIGHT,683.3333347,,,RIGHT,308.1868,47:06.4,47:06.9,55,S1,ResponseSelection
LEFT,1016.666669,,,LEFT,279.1519,47:07.9,47:08.4,56,S1,ResponseSelection
RIGHT,1066.666669,,,RIGHT,355.9123,47:09.5,47:10.1,57,S1,ResponseSelection
LEFT,600.0000012,,,LEFT,302.4708,47:10.7,47:11.2,58,S1,ResponseSelection
RIGHT,866.6666684,,,RIGHT,328.3898,47:12.1,47:12.6,59,S1,ResponseSelection
LEFT,950.0000019,,,LEFT,292.0117,47:13.6,47:14.1,60,S1,ResponseSelection
LEFT,1466.66667,,,LEFT,333.6224,47:15.6,47:16.2,61,S1,ResponseSelection
RIGHT,1100.000002,,,RIGHT,314.8315,47:17.3,47:17.8,62,S1,ResponseSelection
LEFT,1200.000002,,,LEFT,295.3111,47:19.0,47:19.5,63,S1,ResponseSelection
RIGHT,583.3333345,,,RIGHT,339.6703,47:20.1,47:20.7,64,S1,ResponseSelection
RIGHT,600.0000012,,,RIGHT,391.8457,47:21.3,47:21.9,65,S1,ResponseSelection
RIGHT,1233.333336,,,RIGHT,329.5722,47:23.2,47:23.7,66,S1,ResponseSelection
LEFT,500.000001,,,LEFT,320.6168,47:24.3,47:24.8,67,S1,ResponseSelection
LEFT,566.6666678,,,LEFT,323.8159,47:25.4,47:25.9,68,S1,ResponseSelection
LEFT,1383.333336,,,LEFT,289.9358,47:27.3,47:27.9,69,S1,ResponseSelection
RIGHT,1466.66667,,,RIGHT,377.9123,47:29.3,47:29.9,70,S1,ResponseSelection
RIGHT,883.3333351,,,RIGHT,326.0204,47:30.8,47:31.4,71,S1,ResponseSelection
RIGHT,500.000001,,,RIGHT,389.7028,47:31.9,47:32.5,72,S1,ResponseSelection
LEFT,1150.000002,,,LEFT,312.1865,47:33.7,47:34.2,73,S1,ResponseSelection
RIGHT,700.0000014,,,RIGHT,317.5581,47:35.0,47:35.5,74,S1,ResponseSelection
RIGHT,1050.000002,,,RIGHT,355.1065,47:36.6,47:37.1,75,S1,ResponseSelection
RIGHT,1216.666669,,,RIGHT,308.6915,47:38.4,47:38.9,76,S1,ResponseSelection
LEFT,716.6666681,,,LEFT,347.0016,47:39.7,47:40.2,77,S1,ResponseSelection
LEFT,866.6666684,,,LEFT,396.7686,47:41.1,47:41.7,78,S1,ResponseSelection
LEFT,533.3333344,,,LEFT,364.7802,47:42.3,47:42.9,79,S1,ResponseSelection
LEFT,1250.000003,,,LEFT,341.3356,47:44.2,47:44.7,80,S1,ResponseSelection
RIGHT,900.0000018,,,RIGHT,307.8737,47:45.6,47:46.2,81,S1,ResponseSelection
LEFT,1033.333335,,,LEFT,321.2475,47:47.2,47:47.7,82,S1,ResponseSelection
LEFT,1400.000003,,,LEFT,359.4785,47:49.2,47:49.7,83,S1,ResponseSelection
RIGHT,850.0000017,,,RIGHT,347.4307,47:50.6,47:51.2,84,S1,ResponseSelection
LEFT,1216.666669,,,LEFT,352.4357,47:52.4,47:53.0,85,S1,ResponseSelection
LEFT,1116.666669,,,LEFT,329.6165,47:54.1,47:54.7,86,S1,ResponseSelection
LEFT,933.3333352,,,LEFT,354.8667,47:55.6,47:56.2,87,S1,ResponseSelection
LEFT,666.666668,,,LEFT,352.4008,47:56.9,47:57.5,88,S1,ResponseSelection
RIGHT,1016.666669,,,RIGHT,352.3769,47:58.5,47:59.1,89,S1,ResponseSelection
LEFT,1350.000003,,,LEFT,355.461,48:00.5,48:01.0,90,S1,ResponseSelection
RIGHT,1316.666669,,,RIGHT,270.2221,48:02.4,48:02.8,91,S1,ResponseSelection
RIGHT,1283.333336,,,RIGHT,307.2125,48:04.2,48:04.7,92,S1,ResponseSelection
LEFT,616.6666679,,,RIGHT,275.3174,48:05.3,48:05.8,93,S1,ResponseSelection
RIGHT,516.6666677,,,RIGHT,440.3833,48:06.3,48:07.0,94,S1,ResponseSelection
RIGHT,1033.333335,,,RIGHT,357.1999,48:08.1,48:08.6,95,S1,ResponseSelection
RIGHT,950.0000019,,,RIGHT,417.3467,48:09.6,48:10.3,96,S1,ResponseSelection
RIGHT,650.0000013,,,RIGHT,360.9492,48:10.9,48:11.5,97,S1,ResponseSelection
RIGHT,983.3333353,,,RIGHT,400.9493,48:12.5,48:13.1,98,S1,ResponseSelection
LEFT,983.3333353,,,LEFT,314.8253,48:14.2,48:14.7,99,S1,ResponseSelection
RIGHT,1416.66667,,,RIGHT,381.3777,48:16.1,48:16.7,100,S1,ResponseSelection
