Stimulus_Side,ITI,Previous_Response,Previous_RT,Response,RT,Trial_Time_Onset,Trial_Time_End,Trial_Order,Duration,Participant,Task
LEFT,883.3333351,,,DOWN,991.8983000000026,2019-10-31 16:14:36.578890,2019-10-31 16:14:37.795041,1,1.8365461166666668,s3,ProcessingSpeed
RIGHT,1466.6666696,DOWN,-1286.139,DOWN,309.43760000000253,2019-10-31 16:14:39.278651,2019-10-31 16:14:39.796268,2,1.8365461166666668,s3,ProcessingSpeed
RIGHT,983.3333353,,,DOWN,328.8629000000043,2019-10-31 16:14:40.795922,2019-10-31 16:14:41.334033,3,1.8365461166666668,s3,ProcessingSpeed
RIGHT,916.6666685,,,DOWN,346.096799999998,2019-10-31 16:14:42.266778,2019-10-31 16:14:42.819941,4,1.8365461166666668,s3,ProcessingSpeed
LEFT,783.3333349000001,,,DOWN,302.3438999999968,2019-10-31 16:14:43.620305,2019-10-31 16:14:44.130847,5,1.8365461166666668,s3,ProcessingSpeed
LEFT,1366.6666694,,,DOWN,424.62619999999873,2019-10-31 16:14:45.513161,2019-10-31 16:14:46.146255,6,1.8365461166666668,s3,ProcessingSpeed
LEFT,500.000001,,,DOWN,456.01580000000297,2019-10-31 16:14:46.660888,2019-10-31 16:14:47.326261,7,1.8365461166666668,s3,ProcessingSpeed
LEFT,1050.0000021,,,DOWN,371.0346999999956,2019-10-31 16:14:48.385444,2019-10-31 16:14:48.966397,8,1.8365461166666668,s3,ProcessingSpeed
RIGHT,1433.3333362,,,DOWN,289.76430000000164,2019-10-31 16:14:50.408733,2019-10-31 16:14:50.908231,9,1.8365461166666668,s3,ProcessingSpeed
RIGHT,1500.000003,,,DOWN,305.5935000000005,2019-10-31 16:14:52.417898,2019-10-31 16:14:52.932509,10,1.8365461166666668,s3,ProcessingSpeed
LEFT,1216.6666691,,,DOWN,313.24080000000265,2019-10-31 16:14:54.165959,2019-10-31 16:14:54.686508,11,1.8365461166666668,s3,ProcessingSpeed
RIGHT,1083.3333355,,,DOWN,255.2582000000001,2019-10-31 16:14:55.786245,2019-10-31 16:14:56.249810,12,1.8365461166666668,s3,ProcessingSpeed
RIGHT,700.0000014,,,DOWN,355.0869999999975,2019-10-31 16:14:56.966447,2019-10-31 16:14:57.529510,13,1.8365461166666668,s3,ProcessingSpeed
RIGHT,1116.6666689,,,DOWN,306.1536000000018,2019-10-31 16:14:58.662942,2019-10-31 16:14:59.176579,14,1.8365461166666668,s3,ProcessingSpeed
RIGHT,950.0000019,,,DOWN,278.6375000000021,2019-10-31 16:15:00.137025,2019-10-31 16:15:00.623252,15,1.8365461166666668,s3,ProcessingSpeed
LEFT,566.6666678,,,DOWN,335.8695999999952,2019-10-31 16:15:01.208686,2019-10-31 16:15:01.751805,16,1.8365461166666668,s3,ProcessingSpeed
RIGHT,1400.0000028,,,DOWN,278.5185000000041,2019-10-31 16:15:03.168826,2019-10-31 16:15:03.655085,17,1.8365461166666668,s3,ProcessingSpeed
LEFT,1083.3333355,,,DOWN,252.64849999999228,2019-10-31 16:15:04.755463,2019-10-31 16:15:05.216455,18,1.8365461166666668,s3,ProcessingSpeed
RIGHT,600.0000012,,,DOWN,325.6129000000101,2019-10-31 16:15:05.834970,2019-10-31 16:15:06.368501,19,1.8365461166666668,s3,ProcessingSpeed
LEFT,1116.6666689,,,DOWN,208.64239999998802,2019-10-31 16:15:07.501982,2019-10-31 16:15:07.918264,20,1.8365461166666668,s3,ProcessingSpeed
RIGHT,500.000001,,,DOWN,283.3728000000093,2019-10-31 16:15:08.436023,2019-10-31 16:15:08.926648,21,1.8365461166666668,s3,ProcessingSpeed
LEFT,950.0000019,,,DOWN,270.4786000000041,2019-10-31 16:15:09.886024,2019-10-31 16:15:10.363779,22,1.8365461166666668,s3,ProcessingSpeed
RIGHT,883.3333351,,,DOWN,268.6113999999975,2019-10-31 16:15:11.264023,2019-10-31 16:15:11.740971,23,1.8365461166666668,s3,ProcessingSpeed
RIGHT,1266.6666692000001,DOWN,-43.388999999999996,DOWN,516.8767999999915,2019-10-31 16:15:13.023734,2019-10-31 16:15:13.748896,24,1.8365461166666668,s3,ProcessingSpeed
LEFT,700.0000014,,,DOWN,389.2501999999922,2019-10-31 16:15:14.465552,2019-10-31 16:15:15.063484,25,1.8365461166666668,s3,ProcessingSpeed
LEFT,1266.6666692000001,,,DOWN,233.54710000000978,2019-10-31 16:15:16.340171,2019-10-31 16:15:16.781144,26,1.8365461166666668,s3,ProcessingSpeed
LEFT,533.3333344,,,DOWN,411.99280000000726,2019-10-31 16:15:17.332538,2019-10-31 16:15:17.951785,27,1.8365461166666668,s3,ProcessingSpeed
RIGHT,1216.6666691,,,DOWN,294.54169999999635,2019-10-31 16:15:19.186491,2019-10-31 16:15:19.688616,28,1.8365461166666668,s3,ProcessingSpeed
RIGHT,733.3333348,,,DOWN,331.83520000000044,2019-10-31 16:15:20.438677,2019-10-31 16:15:20.978621,29,1.8365461166666668,s3,ProcessingSpeed
LEFT,1016.6666687000001,,,DOWN,311.6170999999923,2019-10-31 16:15:22.012655,2019-10-31 16:15:22.532416,30,1.8365461166666668,s3,ProcessingSpeed
LEFT,816.6666683,,,DOWN,349.8345999999941,2019-10-31 16:15:23.365927,2019-10-31 16:15:23.923949,31,1.8365461166666668,s3,ProcessingSpeed
LEFT,600.0000012,,,DOWN,382.20489999999074,2019-10-31 16:15:24.540355,2019-10-31 16:15:25.131347,32,1.8365461166666668,s3,ProcessingSpeed
LEFT,1300.0000026,,,DOWN,374.80290000000593,2019-10-31 16:15:26.446655,2019-10-31 16:15:27.030367,33,1.8365461166666668,s3,ProcessingSpeed
LEFT,733.3333348,,,DOWN,335.9388000000081,2019-10-31 16:15:27.780628,2019-10-31 16:15:28.324698,34,1.8365461166666668,s3,ProcessingSpeed
RIGHT,783.3333349000001,,,DOWN,285.741299999998,2019-10-31 16:15:29.124167,2019-10-31 16:15:29.616851,35,1.8365461166666668,s3,ProcessingSpeed
RIGHT,850.0000017,,,DOWN,370.31969999999603,2019-10-31 16:15:30.484136,2019-10-31 16:15:31.063096,36,1.8365461166666668,s3,ProcessingSpeed
RIGHT,1366.6666694,,,DOWN,267.458199999993,2019-10-31 16:15:32.444998,2019-10-31 16:15:32.919749,37,1.8365461166666668,s3,ProcessingSpeed
RIGHT,1300.0000026,,,DOWN,249.08999999999537,2019-10-31 16:15:34.236024,2019-10-31 16:15:34.693423,38,1.8365461166666668,s3,ProcessingSpeed
LEFT,1333.3333360000001,,,DOWN,282.9598000000004,2019-10-31 16:15:36.044308,2019-10-31 16:15:36.536222,39,1.8365461166666668,s3,ProcessingSpeed
RIGHT,666.6666680000001,,,DOWN,295.4293000000092,2019-10-31 16:15:37.219438,2019-10-31 16:15:37.724313,40,1.8365461166666668,s3,ProcessingSpeed
RIGHT,816.6666683,,,DOWN,248.31280000000788,2019-10-31 16:15:38.555310,2019-10-31 16:15:39.012090,41,1.8365461166666668,s3,ProcessingSpeed
RIGHT,1050.0000021,,,DOWN,283.6149999999975,2019-10-31 16:15:40.079263,2019-10-31 16:15:40.570106,42,1.8365461166666668,s3,ProcessingSpeed
RIGHT,566.6666678,,,DOWN,340.1872000000026,2019-10-31 16:15:41.153050,2019-10-31 16:15:41.701925,43,1.8365461166666668,s3,ProcessingSpeed
LEFT,1466.6666696,,,DOWN,143.9463000000103,2019-10-31 16:15:43.185567,2019-10-31 16:15:43.536974,44,1.8365461166666668,s3,ProcessingSpeed
RIGHT,533.3333344,,,DOWN,365.58180000000107,2019-10-31 16:15:44.087500,2019-10-31 16:15:44.661209,45,1.8365461166666668,s3,ProcessingSpeed
RIGHT,633.3333346000001,,,DOWN,269.6751000000006,2019-10-31 16:15:45.312031,2019-10-31 16:15:45.789243,46,1.8365461166666668,s3,ProcessingSpeed
LEFT,1500.000003,,,DOWN,322.3516999999987,2019-10-31 16:15:47.306715,2019-10-31 16:15:47.837740,47,1.8365461166666668,s3,ProcessingSpeed
LEFT,633.3333346000001,,,DOWN,333.9380000000034,2019-10-31 16:15:48.488109,2019-10-31 16:15:49.030178,48,1.8365461166666668,s3,ProcessingSpeed
LEFT,983.3333353,,,DOWN,277.8062999999946,2019-10-31 16:15:50.029157,2019-10-31 16:15:50.514968,49,1.8365461166666668,s3,ProcessingSpeed
LEFT,666.6666680000001,,,DOWN,273.97360000000504,2019-10-31 16:15:51.199148,2019-10-31 16:15:51.680538,50,1.8365461166666668,s3,ProcessingSpeed
LEFT,1150.0000023,,,DOWN,282.0236999999963,2019-10-31 16:15:52.848531,2019-10-31 16:15:53.339220,51,1.8365461166666668,s3,ProcessingSpeed
RIGHT,1016.6666687000001,,,DOWN,284.62659999999573,2019-10-31 16:15:54.372281,2019-10-31 16:15:54.865265,52,1.8365461166666668,s3,ProcessingSpeed
LEFT,1400.0000028,DOWN,-324.84200000000004,DOWN,478.72330000001284,2019-10-31 16:15:56.282294,2019-10-31 16:15:56.968509,53,1.8365461166666668,s3,ProcessingSpeed
RIGHT,1333.3333360000001,,,DOWN,350.560999999999,2019-10-31 16:15:58.318554,2019-10-31 16:15:58.877228,54,1.8365461166666668,s3,ProcessingSpeed
LEFT,850.0000017,,,DOWN,252.4013000000025,2019-10-31 16:15:59.744406,2019-10-31 16:16:00.205762,55,1.8365461166666668,s3,ProcessingSpeed
RIGHT,1150.0000023,,,DOWN,258.8803000000155,2019-10-31 16:16:01.371263,2019-10-31 16:16:01.839117,56,1.8365461166666668,s3,ProcessingSpeed
LEFT,1183.3333357000001,,,DOWN,264.88909999997645,2019-10-31 16:16:03.031425,2019-10-31 16:16:03.504162,57,1.8365461166666668,s3,ProcessingSpeed
RIGHT,1183.3333357000001,,,DOWN,259.08450000000016,2019-10-31 16:16:04.703856,2019-10-31 16:16:05.170876,58,1.8365461166666668,s3,ProcessingSpeed
LEFT,1433.3333362,DOWN,-78.79899999999999,DOWN,349.0701999999999,2019-10-31 16:16:06.613233,2019-10-31 16:16:07.169724,59,1.8365461166666668,s3,ProcessingSpeed
LEFT,916.6666685,,,DOWN,427.39009999999666,2019-10-31 16:16:08.097316,2019-10-31 16:16:08.732844,60,1.8365461166666668,s3,ProcessingSpeed
