Conflict,Stimulus_Side,ITI,Previous_Response,Previous_RT,Cue_Response,Cue_Response_RT,Response,RT,Trial_Time_Onset,Trial_Time_End,Trial_Order,Duration,Participant,Task
False,LEFT,666.6666680000001,,,,,LEFT,587.1831000000611,2019-11-12 11:18:59.152105,2019-11-12 11:18:59.946947,1,5.25396275,S5,Conflict_Resolution
True,LEFT,683.3333347,,,,,LEFT,729.0788000000248,2019-11-12 11:19:00.652140,2019-11-12 11:19:01.588926,2,5.25396275,S5,Conflict_Resolution
False,RIGHT,1050.0000021,,,,,RIGHT,424.54720000000634,2019-11-12 11:19:02.661437,2019-11-12 11:19:03.293826,3,5.25396275,S5,Conflict_Resolution
True,LEFT,1016.6666687000001,,,,,LEFT,590.5653999999458,2019-11-12 11:19:04.330243,2019-11-12 11:19:05.127207,4,5.25396275,S5,Conflict_Resolution
False,RIGHT,1233.3333358,,,,,RIGHT,509.2498000000205,2019-11-12 11:19:06.382396,2019-11-12 11:19:07.098150,5,5.25396275,S5,Conflict_Resolution
False,LEFT,1000.000002,,,,,LEFT,388.7671999999611,2019-11-12 11:19:08.122477,2019-11-12 11:19:08.718979,6,5.25396275,S5,Conflict_Resolution
False,RIGHT,900.0000018000001,,,,,RIGHT,323.11040000001867,2019-11-12 11:19:09.641038,2019-11-12 11:19:10.170689,7,5.25396275,S5,Conflict_Resolution
False,LEFT,966.6666686,,,,,LEFT,451.27130000003035,2019-11-12 11:19:11.158170,2019-11-12 11:19:11.816439,8,5.25396275,S5,Conflict_Resolution
False,RIGHT,1466.6666696,,,,,RIGHT,413.33510000004026,2019-11-12 11:19:13.303759,2019-11-12 11:19:13.924329,9,5.25396275,S5,Conflict_Resolution
True,LEFT,616.6666679,,,,,LEFT,481.73020000001543,2019-11-12 11:19:14.562051,2019-11-12 11:19:15.249449,10,5.25396275,S5,Conflict_Resolution
True,LEFT,583.3333345,,,,,LEFT,488.5752999999795,2019-11-12 11:19:15.856059,2019-11-12 11:19:16.551082,11,5.25396275,S5,Conflict_Resolution
False,LEFT,1100.0000022,,,,,LEFT,388.8629000000492,2019-11-12 11:19:17.671675,2019-11-12 11:19:18.267352,12,5.25396275,S5,Conflict_Resolution
True,RIGHT,983.3333353,,,,,RIGHT,788.3323999999448,2019-11-12 11:19:19.272297,2019-11-12 11:19:20.267853,13,5.25396275,S5,Conflict_Resolution
True,RIGHT,1150.0000023,,,,,RIGHT,658.2184999999754,2019-11-12 11:19:21.440630,2019-11-12 11:19:22.306847,14,5.25396275,S5,Conflict_Resolution
False,LEFT,1366.6666694,,,,,LEFT,447.55929999996624,2019-11-12 11:19:23.699625,2019-11-12 11:19:24.354510,15,5.25396275,S5,Conflict_Resolution
False,LEFT,1416.6666695000001,,,,,LEFT,481.826700000056,2019-11-12 11:19:25.793221,2019-11-12 11:19:26.483029,16,5.25396275,S5,Conflict_Resolution
False,RIGHT,1283.3333359,,,,,RIGHT,477.8185999999778,2019-11-12 11:19:27.783021,2019-11-12 11:19:28.467354,17,5.25396275,S5,Conflict_Resolution
True,RIGHT,1050.0000021,,,,,RIGHT,635.1240999999845,2019-11-12 11:19:29.535825,2019-11-12 11:19:30.378043,18,5.25396275,S5,Conflict_Resolution
False,RIGHT,850.0000017,,,,,RIGHT,491.11360000006243,2019-11-12 11:19:31.243313,2019-11-12 11:19:31.940159,19,5.25396275,S5,Conflict_Resolution
True,LEFT,766.6666682,,,,,LEFT,515.4777000000195,2019-11-12 11:19:32.724835,2019-11-12 11:19:33.447137,20,5.25396275,S5,Conflict_Resolution
True,LEFT,783.3333349000001,,,,,LEFT,537.9926000000523,2019-11-12 11:19:34.246973,2019-11-12 11:19:34.991147,21,5.25396275,S5,Conflict_Resolution
True,RIGHT,933.3333352,,,,,RIGHT,559.9905000000263,2019-11-12 11:19:35.947860,2019-11-12 11:19:36.714152,22,5.25396275,S5,Conflict_Resolution
False,RIGHT,800.0000016,,,,,RIGHT,449.5424000000412,2019-11-12 11:19:37.538078,2019-11-12 11:19:38.195005,23,5.25396275,S5,Conflict_Resolution
False,RIGHT,1416.6666695000001,,,,,RIGHT,441.24809999993886,2019-11-12 11:19:39.632036,2019-11-12 11:19:40.280982,24,5.25396275,S5,Conflict_Resolution
True,LEFT,1400.0000028,,,,,LEFT,619.1013999999768,2019-11-12 11:19:41.700505,2019-11-12 11:19:42.526581,25,5.25396275,S5,Conflict_Resolution
False,LEFT,1400.0000028,,,,,LEFT,570.4742000000351,2019-11-12 11:19:43.949758,2019-11-12 11:19:44.727812,26,5.25396275,S5,Conflict_Resolution
True,LEFT,1316.6666693,,,,,LEFT,610.1638000000094,2019-11-12 11:19:46.066789,2019-11-12 11:19:46.883985,27,5.25396275,S5,Conflict_Resolution
True,LEFT,716.6666681,,,,,LEFT,481.64839999992637,2019-11-12 11:19:47.623288,2019-11-12 11:19:48.311204,28,5.25396275,S5,Conflict_Resolution
False,RIGHT,533.3333344,,,,,RIGHT,539.7307000000637,2019-11-12 11:19:48.859872,2019-11-12 11:19:49.606344,29,5.25396275,S5,Conflict_Resolution
True,LEFT,1200.0000024,,,,,LEFT,497.8373000000147,2019-11-12 11:19:50.821346,2019-11-12 11:19:51.526636,30,5.25396275,S5,Conflict_Resolution
False,RIGHT,1483.3333363,,,,,RIGHT,420.0008999999909,2019-11-12 11:19:53.031116,2019-11-12 11:19:53.657900,31,5.25396275,S5,Conflict_Resolution
True,RIGHT,1083.3333355,,,,,LEFT,407.90289999995366,2019-11-12 11:19:54.762775,2019-11-12 11:19:55.377521,32,5.25396275,S5,Conflict_Resolution
False,LEFT,1300.0000026,,,,,LEFT,462.89249999995263,2019-11-12 11:19:56.699482,2019-11-12 11:19:57.369695,33,5.25396275,S5,Conflict_Resolution
False,LEFT,850.0000017,,,,,LEFT,407.9854000000296,2019-11-12 11:19:58.240314,2019-11-12 11:19:58.855482,34,5.25396275,S5,Conflict_Resolution
True,LEFT,950.0000019,,,,,LEFT,507.22749999999905,2019-11-12 11:19:59.828665,2019-11-12 11:20:00.543029,35,5.25396275,S5,Conflict_Resolution
False,RIGHT,583.3333345,,,,,RIGHT,442.3614999999472,2019-11-12 11:20:01.148979,2019-11-12 11:20:01.799931,36,5.25396275,S5,Conflict_Resolution
False,RIGHT,650.0000013,,,,,RIGHT,412.2217000000319,2019-11-12 11:20:02.471405,2019-11-12 11:20:03.091558,37,5.25396275,S5,Conflict_Resolution
True,LEFT,1350.0000027,,,,,LEFT,557.7089000000797,2019-11-12 11:20:04.462996,2019-11-12 11:20:05.227384,38,5.25396275,S5,Conflict_Resolution
True,RIGHT,1483.3333363,,,,,RIGHT,585.9747000000652,2019-11-12 11:20:06.733295,2019-11-12 11:20:07.526613,39,5.25396275,S5,Conflict_Resolution
True,RIGHT,833.333335,,,,,RIGHT,892.4372000000176,2019-11-12 11:20:08.380365,2019-11-12 11:20:09.480064,40,5.25396275,S5,Conflict_Resolution
True,LEFT,733.3333348,,,,,LEFT,555.275800000004,2019-11-12 11:20:10.234553,2019-11-12 11:20:10.996056,41,5.25396275,S5,Conflict_Resolution
False,LEFT,766.6666682,,,,,LEFT,514.7559000000683,2019-11-12 11:20:11.787086,2019-11-12 11:20:12.507148,42,5.25396275,S5,Conflict_Resolution
True,RIGHT,800.0000016,,,,,RIGHT,560.318200000097,2019-11-12 11:20:13.330524,2019-11-12 11:20:14.097094,43,5.25396275,S5,Conflict_Resolution
False,LEFT,716.6666681,,,,,LEFT,461.38940000003004,2019-11-12 11:20:14.837296,2019-11-12 11:20:15.505972,44,5.25396275,S5,Conflict_Resolution
True,LEFT,1300.0000026,,,,,LEFT,528.2154999999875,2019-11-12 11:20:16.827103,2019-11-12 11:20:17.562549,45,5.25396275,S5,Conflict_Resolution
True,RIGHT,783.3333349000001,,,,,RIGHT,577.4802000000818,2019-11-12 11:20:18.368803,2019-11-12 11:20:19.152470,46,5.25396275,S5,Conflict_Resolution
True,RIGHT,1133.3333356,,,,,RIGHT,719.5387000000437,2019-11-12 11:20:20.309423,2019-11-12 11:20:21.236273,47,5.25396275,S5,Conflict_Resolution
True,RIGHT,850.0000017,,,,,RIGHT,547.6824999999508,2019-11-12 11:20:22.109098,2019-11-12 11:20:22.863401,48,5.25396275,S5,Conflict_Resolution
True,RIGHT,583.3333345,,,,,RIGHT,705.4303999999547,2019-11-12 11:20:23.466827,2019-11-12 11:20:24.378520,49,5.25396275,S5,Conflict_Resolution
False,LEFT,950.0000019,,,,,LEFT,638.1632999999738,2019-11-12 11:20:25.349740,2019-11-12 11:20:26.195976,50,5.25396275,S5,Conflict_Resolution
True,LEFT,666.6666680000001,,,,,LEFT,671.4269999999942,2019-11-12 11:20:26.887381,2019-11-12 11:20:27.765481,51,5.25396275,S5,Conflict_Resolution
False,LEFT,533.3333344,,,,,LEFT,473.08330000009846,2019-11-12 11:20:28.321055,2019-11-12 11:20:29.000053,52,5.25396275,S5,Conflict_Resolution
False,LEFT,733.3333348,,,,,LEFT,324.04729999996107,2019-11-12 11:20:29.754905,2019-11-12 11:20:30.285449,53,5.25396275,S5,Conflict_Resolution
False,LEFT,1150.0000023,,,,,LEFT,420.7940999999664,2019-11-12 11:20:31.456657,2019-11-12 11:20:32.084919,54,5.25396275,S5,Conflict_Resolution
True,LEFT,1416.6666695000001,,,,,RIGHT,372.42319999995743,2019-11-12 11:20:33.523710,2019-11-12 11:20:34.102127,55,5.25396275,S5,Conflict_Resolution
False,LEFT,1066.6666688,,,,,LEFT,440.09219999998095,2019-11-12 11:20:35.189793,2019-11-12 11:20:35.836338,56,5.25396275,S5,Conflict_Resolution
True,RIGHT,1216.6666691,,,,,RIGHT,601.9148000000314,2019-11-12 11:20:37.075533,2019-11-12 11:20:37.884772,57,5.25396275,S5,Conflict_Resolution
True,RIGHT,1266.6666692000001,,,,,RIGHT,582.7247999999372,2019-11-12 11:20:39.167648,2019-11-12 11:20:39.957380,58,5.25396275,S5,Conflict_Resolution
True,LEFT,916.6666685,,,,,LEFT,618.3091999999988,2019-11-12 11:20:40.891923,2019-11-12 11:20:41.717546,59,5.25396275,S5,Conflict_Resolution
False,RIGHT,1033.3333354000001,,,,,RIGHT,494.68480000007276,2019-11-12 11:20:42.772137,2019-11-12 11:20:43.474324,60,5.25396275,S5,Conflict_Resolution
False,RIGHT,733.3333348,,,,,RIGHT,449.5282999999972,2019-11-12 11:20:44.223924,2019-11-12 11:20:44.880078,61,5.25396275,S5,Conflict_Resolution
False,LEFT,1266.6666692000001,,,,,LEFT,554.4264000000112,2019-11-12 11:20:46.168846,2019-11-12 11:20:46.930884,62,5.25396275,S5,Conflict_Resolution
False,RIGHT,1133.3333356,,,,,RIGHT,595.8673999999746,2019-11-12 11:20:48.081043,2019-11-12 11:20:48.884212,63,5.25396275,S5,Conflict_Resolution
False,LEFT,516.6666677000001,,,,,LEFT,648.6752000000706,2019-11-12 11:20:49.416917,2019-11-12 11:20:50.272603,64,5.25396275,S5,Conflict_Resolution
True,RIGHT,1233.3333358,,,,,RIGHT,632.0858000000271,2019-11-12 11:20:51.530301,2019-11-12 11:20:52.369630,65,5.25396275,S5,Conflict_Resolution
True,RIGHT,683.3333347,,,,,RIGHT,604.5446000000538,2019-11-12 11:20:53.067851,2019-11-12 11:20:53.879415,66,5.25396275,S5,Conflict_Resolution
False,RIGHT,1183.3333357000001,,,,,RIGHT,646.4148999999679,2019-11-12 11:20:55.084501,2019-11-12 11:20:55.938868,67,5.25396275,S5,Conflict_Resolution
False,RIGHT,1216.6666691,,,,,RIGHT,409.21880000007604,2019-11-12 11:20:57.175549,2019-11-12 11:20:57.791930,68,5.25396275,S5,Conflict_Resolution
False,RIGHT,1316.6666693,,,,,RIGHT,421.3029000000006,2019-11-12 11:20:59.134199,2019-11-12 11:20:59.762261,69,5.25396275,S5,Conflict_Resolution
True,LEFT,1266.6666692000001,,,,,LEFT,574.2256999999427,2019-11-12 11:21:01.051365,2019-11-12 11:21:01.832429,70,5.25396275,S5,Conflict_Resolution
True,LEFT,1116.6666689,,,,,LEFT,541.1821000000145,2019-11-12 11:21:02.971850,2019-11-12 11:21:03.719936,71,5.25396275,S5,Conflict_Resolution
True,LEFT,533.3333344,,,,,LEFT,567.2804000000724,2019-11-12 11:21:04.275066,2019-11-12 11:21:05.050892,72,5.25396275,S5,Conflict_Resolution
True,RIGHT,650.0000013,,,,,RIGHT,536.9864000000462,2019-11-12 11:21:05.721324,2019-11-12 11:21:06.465593,73,5.25396275,S5,Conflict_Resolution
False,RIGHT,633.3333346000001,,,,,RIGHT,374.8461000000134,2019-11-12 11:21:07.122790,2019-11-12 11:21:07.705046,74,5.25396275,S5,Conflict_Resolution
True,RIGHT,1183.3333357000001,,,,,RIGHT,592.7067999999736,2019-11-12 11:21:08.905483,2019-11-12 11:21:09.705218,75,5.25396275,S5,Conflict_Resolution
False,LEFT,816.6666683,,,,,LEFT,428.21279999998296,2019-11-12 11:21:10.544445,2019-11-12 11:21:11.180005,76,5.25396275,S5,Conflict_Resolution
True,RIGHT,500.000001,,,,,RIGHT,572.2425000000158,2019-11-12 11:21:11.701862,2019-11-12 11:21:12.481830,77,5.25396275,S5,Conflict_Resolution
False,RIGHT,1433.3333362,,,,,RIGHT,530.565999999908,2019-11-12 11:21:13.934714,2019-11-12 11:21:14.673729,78,5.25396275,S5,Conflict_Resolution
True,LEFT,866.6666684,,,,,LEFT,466.0453999999845,2019-11-12 11:21:15.560829,2019-11-12 11:21:16.233422,79,5.25396275,S5,Conflict_Resolution
True,RIGHT,1383.3333361,,,,,RIGHT,558.4264000000303,2019-11-12 11:21:17.637806,2019-11-12 11:21:18.403846,80,5.25396275,S5,Conflict_Resolution
False,RIGHT,950.0000019,,,,,RIGHT,394.252100000017,2019-11-12 11:21:19.372339,2019-11-12 11:21:19.973079,81,5.25396275,S5,Conflict_Resolution
False,RIGHT,1100.0000022,,,,,RIGHT,379.68149999994694,2019-11-12 11:21:21.094596,2019-11-12 11:21:21.681689,82,5.25396275,S5,Conflict_Resolution
True,LEFT,516.6666677000001,,,,,LEFT,538.3334000000559,2019-11-12 11:21:22.219280,2019-11-12 11:21:22.965808,83,5.25396275,S5,Conflict_Resolution
False,RIGHT,1366.6666694,,,,,RIGHT,513.1074000000808,2019-11-12 11:21:24.349105,2019-11-12 11:21:25.068526,84,5.25396275,S5,Conflict_Resolution
False,LEFT,1050.0000021,,,,,LEFT,432.6889999999821,2019-11-12 11:21:26.140411,2019-11-12 11:21:26.780928,85,5.25396275,S5,Conflict_Resolution
True,RIGHT,600.0000012,,,,,RIGHT,569.6427000000313,2019-11-12 11:21:27.404713,2019-11-12 11:21:28.180128,86,5.25396275,S5,Conflict_Resolution
True,LEFT,1166.666669,,,,,LEFT,564.1160000000127,2019-11-12 11:21:29.365331,2019-11-12 11:21:30.136149,87,5.25396275,S5,Conflict_Resolution
True,LEFT,1050.0000021,,,,,LEFT,617.9019999999582,2019-11-12 11:21:31.208797,2019-11-12 11:21:32.034757,88,5.25396275,S5,Conflict_Resolution
False,RIGHT,933.3333352,,,,,RIGHT,522.191600000042,2019-11-12 11:21:32.993304,2019-11-12 11:21:33.722658,89,5.25396275,S5,Conflict_Resolution
True,LEFT,1066.6666688,,,,,LEFT,623.2221000000209,2019-11-12 11:21:34.812299,2019-11-12 11:21:35.642952,90,5.25396275,S5,Conflict_Resolution
False,RIGHT,600.0000012,,,,,RIGHT,480.61109999991913,2019-11-12 11:21:36.264038,2019-11-12 11:21:36.952640,91,5.25396275,S5,Conflict_Resolution
False,LEFT,683.3333347,,,,,LEFT,540.87770000001,2019-11-12 11:21:37.657719,2019-11-12 11:21:38.405746,92,5.25396275,S5,Conflict_Resolution
False,RIGHT,1000.000002,,,,,RIGHT,513.3713999999827,2019-11-12 11:21:39.421828,2019-11-12 11:21:40.142226,93,5.25396275,S5,Conflict_Resolution
True,RIGHT,550.0000011,,,,,RIGHT,718.5604000000012,2019-11-12 11:21:40.715081,2019-11-12 11:21:41.640145,94,5.25396275,S5,Conflict_Resolution
False,LEFT,633.3333346000001,,,,,LEFT,553.5102000000052,2019-11-12 11:21:42.289511,2019-11-12 11:21:43.051019,95,5.25396275,S5,Conflict_Resolution
False,LEFT,1250.0000025,,,,,LEFT,493.1813000000602,2019-11-12 11:21:44.324835,2019-11-12 11:21:45.025582,96,5.25396275,S5,Conflict_Resolution
False,RIGHT,750.0000015,,,,,RIGHT,431.7147000000432,2019-11-12 11:21:45.796710,2019-11-12 11:21:46.435061,97,5.25396275,S5,Conflict_Resolution
False,LEFT,1166.666669,,,,,LEFT,360.3242000000364,2019-11-12 11:21:47.621986,2019-11-12 11:21:48.190189,98,5.25396275,S5,Conflict_Resolution
True,RIGHT,633.3333346000001,,,,,RIGHT,586.4824999999882,2019-11-12 11:21:48.843544,2019-11-12 11:21:49.636672,99,5.25396275,S5,Conflict_Resolution
True,LEFT,1150.0000023,,,,,LEFT,367.7781999999752,2019-11-12 11:21:50.808796,2019-11-12 11:21:51.383773,100,5.25396275,S5,Conflict_Resolution
True,RIGHT,1316.6666693,,,,,RIGHT,584.5527000000175,2019-11-12 11:21:52.720663,2019-11-12 11:21:53.512966,101,5.25396275,S5,Conflict_Resolution
True,RIGHT,883.3333351,,,,,RIGHT,546.0756999999603,2019-11-12 11:21:54.420117,2019-11-12 11:21:55.172662,102,5.25396275,S5,Conflict_Resolution
False,LEFT,1466.6666696,,,,,LEFT,516.8055999999979,2019-11-12 11:21:56.661691,2019-11-12 11:21:57.385811,103,5.25396275,S5,Conflict_Resolution
False,RIGHT,1383.3333361,,,,,RIGHT,503.511900000035,2019-11-12 11:21:58.790597,2019-11-12 11:21:59.500139,104,5.25396275,S5,Conflict_Resolution
True,RIGHT,750.0000015,,,,,RIGHT,670.1302000000169,2019-11-12 11:22:00.270431,2019-11-12 11:22:01.146812,105,5.25396275,S5,Conflict_Resolution
True,RIGHT,1466.6666696,,,,,RIGHT,486.65649999998095,2019-11-12 11:22:02.636301,2019-11-12 11:22:03.329943,106,5.25396275,S5,Conflict_Resolution
True,LEFT,1100.0000022,,,,,LEFT,569.661300000007,2019-11-12 11:22:04.452990,2019-11-12 11:22:05.229265,107,5.25396275,S5,Conflict_Resolution
True,RIGHT,733.3333348,,,,,RIGHT,477.455999999961,2019-11-12 11:22:05.983066,2019-11-12 11:22:06.668688,108,5.25396275,S5,Conflict_Resolution
True,RIGHT,1433.3333362,,,,,RIGHT,515.6857999999147,2019-11-12 11:22:08.118052,2019-11-12 11:22:08.841887,109,5.25396275,S5,Conflict_Resolution
False,RIGHT,1333.3333360000001,,,,,RIGHT,411.24939999997423,2019-11-12 11:22:10.195911,2019-11-12 11:22:10.814540,110,5.25396275,S5,Conflict_Resolution
False,RIGHT,883.3333351,,,,,RIGHT,372.6930999999922,2019-11-12 11:22:11.717607,2019-11-12 11:22:12.297654,111,5.25396275,S5,Conflict_Resolution
False,LEFT,1200.0000024,,,,,LEFT,439.43269999999757,2019-11-12 11:22:13.519595,2019-11-12 11:22:14.166850,112,5.25396275,S5,Conflict_Resolution
True,RIGHT,700.0000014,,,,,RIGHT,464.27639999990333,2019-11-12 11:22:14.888468,2019-11-12 11:22:15.559539,113,5.25396275,S5,Conflict_Resolution
False,LEFT,1500.000003,,,,,LEFT,527.3753999999826,2019-11-12 11:22:17.081163,2019-11-12 11:22:17.814392,114,5.25396275,S5,Conflict_Resolution
False,RIGHT,1150.0000023,,,,,RIGHT,363.7416999999914,2019-11-12 11:22:18.987205,2019-11-12 11:22:19.558503,115,5.25396275,S5,Conflict_Resolution
True,LEFT,816.6666683,,,,,LEFT,540.9368000000541,2019-11-12 11:22:20.396982,2019-11-12 11:22:21.144782,116,5.25396275,S5,Conflict_Resolution
False,RIGHT,500.000001,,,,,RIGHT,372.25899999998546,2019-11-12 11:22:21.670083,2019-11-12 11:22:22.250528,117,5.25396275,S5,Conflict_Resolution
False,LEFT,1450.0000029,,,,,LEFT,470.3306999999768,2019-11-12 11:22:23.721798,2019-11-12 11:22:24.399409,118,5.25396275,S5,Conflict_Resolution
False,RIGHT,783.3333349000001,,,,,RIGHT,357.03769999997803,2019-11-12 11:22:25.203780,2019-11-12 11:22:25.767248,119,5.25396275,S5,Conflict_Resolution
False,LEFT,866.6666684,,,,,LEFT,386.63900000005924,2019-11-12 11:22:26.649925,2019-11-12 11:22:27.243542,120,5.25396275,S5,Conflict_Resolution
True,LEFT,1366.6666694,,,,,RIGHT,428.6465000000135,2019-11-12 11:22:28.632111,2019-11-12 11:22:29.267086,121,5.25396275,S5,Conflict_Resolution
False,LEFT,783.3333349000001,,,,,LEFT,406.57950000002074,2019-11-12 11:22:30.072929,2019-11-12 11:22:30.685201,122,5.25396275,S5,Conflict_Resolution
False,LEFT,916.6666685,,,,,LEFT,367.904899999985,2019-11-12 11:22:31.623303,2019-11-12 11:22:32.197868,123,5.25396275,S5,Conflict_Resolution
False,LEFT,1316.6666693,,,,,LEFT,480.4231999999047,2019-11-12 11:22:33.531251,2019-11-12 11:22:34.218401,124,5.25396275,S5,Conflict_Resolution
True,RIGHT,1283.3333359,,,,,RIGHT,690.8397000000832,2019-11-12 11:22:35.518675,2019-11-12 11:22:36.416566,125,5.25396275,S5,Conflict_Resolution
False,LEFT,616.6666679,,,,,LEFT,527.9412999999522,2019-11-12 11:22:37.049025,2019-11-12 11:22:37.786706,126,5.25396275,S5,Conflict_Resolution
True,RIGHT,1416.6666695000001,,,,,RIGHT,974.3262000000641,2019-11-12 11:22:39.219424,2019-11-12 11:22:40.401894,127,5.25396275,S5,Conflict_Resolution
True,LEFT,850.0000017,,,,,LEFT,598.2797000000346,2019-11-12 11:22:41.274607,2019-11-12 11:22:42.080776,128,5.25396275,S5,Conflict_Resolution
False,RIGHT,983.3333353,,,,,RIGHT,709.7625000000107,2019-11-12 11:22:43.085333,2019-11-12 11:22:44.002175,129,5.25396275,S5,Conflict_Resolution
False,RIGHT,550.0000011,,,,,RIGHT,417.44149999999536,2019-11-12 11:22:44.574175,2019-11-12 11:22:45.197758,130,5.25396275,S5,Conflict_Resolution
True,LEFT,566.6666678,,,,,LEFT,532.0516000000453,2019-11-12 11:22:45.786703,2019-11-12 11:22:46.526020,131,5.25396275,S5,Conflict_Resolution
True,RIGHT,1033.3333354000001,,,,,RIGHT,568.405000000098,2019-11-12 11:22:47.580201,2019-11-12 11:22:48.356117,132,5.25396275,S5,Conflict_Resolution
False,LEFT,583.3333345,,,,,LEFT,635.7040000000325,2019-11-12 11:22:48.961131,2019-11-12 11:22:49.804470,133,5.25396275,S5,Conflict_Resolution
True,RIGHT,533.3333344,,,,,RIGHT,778.7928000000193,2019-11-12 11:22:50.359965,2019-11-12 11:22:51.345375,134,5.25396275,S5,Conflict_Resolution
True,LEFT,1466.6666696,,,,,LEFT,569.993199999999,2019-11-12 11:22:52.834945,2019-11-12 11:22:53.614892,135,5.25396275,S5,Conflict_Resolution
True,RIGHT,1333.3333360000001,,,,,LEFT,707.120600000053,2019-11-12 11:22:54.970047,2019-11-12 11:22:55.884777,136,5.25396275,S5,Conflict_Resolution
False,RIGHT,833.333335,,,,,RIGHT,485.1754000000028,2019-11-12 11:22:56.738895,2019-11-12 11:22:57.431942,137,5.25396275,S5,Conflict_Resolution
False,LEFT,900.0000018000001,,,,,LEFT,507.17329999997673,2019-11-12 11:22:58.354698,2019-11-12 11:22:59.068784,138,5.25396275,S5,Conflict_Resolution
False,LEFT,1016.6666687000001,,,,,LEFT,498.4392000000071,2019-11-12 11:23:00.107460,2019-11-12 11:23:00.814021,139,5.25396275,S5,Conflict_Resolution
True,RIGHT,1000.000002,,,,,RIGHT,577.4885000000722,2019-11-12 11:23:01.829748,2019-11-12 11:23:02.614382,140,5.25396275,S5,Conflict_Resolution
True,LEFT,966.6666686,,,,,LEFT,601.5882000000374,2019-11-12 11:23:03.602750,2019-11-12 11:23:04.410308,141,5.25396275,S5,Conflict_Resolution
False,LEFT,1350.0000027,,,,,LEFT,468.15879999996923,2019-11-12 11:23:05.782433,2019-11-12 11:23:06.457254,142,5.25396275,S5,Conflict_Resolution
False,RIGHT,1083.3333355,,,,,RIGHT,493.10639999998784,2019-11-12 11:23:07.561963,2019-11-12 11:23:08.262112,143,5.25396275,S5,Conflict_Resolution
True,RIGHT,950.0000019,,,,,RIGHT,574.0141999999651,2019-11-12 11:23:09.233955,2019-11-12 11:23:10.016137,144,5.25396275,S5,Conflict_Resolution
True,RIGHT,1366.6666694,,,,,RIGHT,517.8919999999607,2019-11-12 11:23:11.401054,2019-11-12 11:23:12.125418,145,5.25396275,S5,Conflict_Resolution
True,RIGHT,900.0000018000001,,,,,RIGHT,598.3936999999742,2019-11-12 11:23:13.046803,2019-11-12 11:23:13.852393,146,5.25396275,S5,Conflict_Resolution
False,LEFT,1116.6666689,,,,,LEFT,593.1622000000516,2019-11-12 11:23:14.985374,2019-11-12 11:23:15.785849,147,5.25396275,S5,Conflict_Resolution
False,LEFT,566.6666678,,,,,LEFT,451.71749999997246,2019-11-12 11:23:16.368271,2019-11-12 11:23:17.027702,148,5.25396275,S5,Conflict_Resolution
True,LEFT,1000.000002,,,,,LEFT,1010.4245999999648,2019-11-12 11:23:18.048794,2019-11-12 11:23:19.266794,149,5.25396275,S5,Conflict_Resolution
False,RIGHT,1266.6666692000001,,,,,RIGHT,584.259799999927,2019-11-12 11:23:20.553455,2019-11-12 11:23:21.345730,150,5.25396275,S5,Conflict_Resolution
True,LEFT,1250.0000025,,,,,Time_Max_Exceeded,1500.054299999988,2019-11-12 11:23:22.618511,2019-11-12 11:23:24.118118,151,5.25396275,S5,Conflict_Resolution
True,LEFT,1450.0000029,,,,,LEFT,562.4628000000484,2019-11-12 11:23:25.585373,2019-11-12 11:23:26.354687,152,5.25396275,S5,Conflict_Resolution
True,RIGHT,1100.0000022,,,,,RIGHT,508.4815999999819,2019-11-12 11:23:27.476997,2019-11-12 11:23:28.192640,153,5.25396275,S5,Conflict_Resolution
True,LEFT,633.3333346000001,,,,,LEFT,572.0496999999796,2019-11-12 11:23:28.848488,2019-11-12 11:23:29.627050,154,5.25396275,S5,Conflict_Resolution
False,RIGHT,683.3333347,,,,,RIGHT,437.1251999999686,2019-11-12 11:23:30.330732,2019-11-12 11:23:30.975611,155,5.25396275,S5,Conflict_Resolution
True,LEFT,900.0000018000001,,,,,LEFT,555.6378999999652,2019-11-12 11:23:31.898014,2019-11-12 11:23:32.660813,156,5.25396275,S5,Conflict_Resolution
False,RIGHT,700.0000014,,,,,RIGHT,516.8509999999742,2019-11-12 11:23:33.382204,2019-11-12 11:23:34.106637,157,5.25396275,S5,Conflict_Resolution
True,LEFT,1500.000003,,,,,LEFT,521.9577999999956,2019-11-12 11:23:35.629522,2019-11-12 11:23:36.358622,158,5.25396275,S5,Conflict_Resolution
True,LEFT,1216.6666691,,,,,LEFT,554.3938999999227,2019-11-12 11:23:37.597884,2019-11-12 11:23:38.360518,159,5.25396275,S5,Conflict_Resolution
False,LEFT,1216.6666691,,,,,LEFT,484.01010000009137,2019-11-12 11:23:39.600483,2019-11-12 11:23:40.291953,160,5.25396275,S5,Conflict_Resolution
