Conflict,Stimulus_Side,ITI,Previous_Response,Previous_RT,Cue_Response,Cue_Response_RT,Response,RT,Trial_Time_Onset,Trial_Time_End,Trial_Order,Duration,Participant,Task
True,RIGHT,500.000001,,,,,RIGHT,1569.8138999999856,2019-12-12 13:16:56.483767,2019-12-12 13:16:58.260365,1,4.9937422,S17,Conflict_Resolution
True,LEFT,1166.666669,,,,,LEFT,497.68169999993006,2019-12-12 13:16:59.451649,2019-12-12 13:17:00.157099,2,4.9937422,S17,Conflict_Resolution
False,RIGHT,1183.3333357000001,,,,,RIGHT,376.1595999999372,2019-12-12 13:17:01.365619,2019-12-12 13:17:01.947960,3,4.9937422,S17,Conflict_Resolution
True,RIGHT,700.0000014,,,,,RIGHT,509.04479999996965,2019-12-12 13:17:02.672157,2019-12-12 13:17:03.389694,4,4.9937422,S17,Conflict_Resolution
False,RIGHT,1150.0000023,,,,,RIGHT,295.0400999999374,2019-12-12 13:17:04.566115,2019-12-12 13:17:05.067852,5,4.9937422,S17,Conflict_Resolution
True,LEFT,1066.6666688,,,,,LEFT,461.05529999999817,2019-12-12 13:17:06.159852,2019-12-12 13:17:06.828753,6,4.9937422,S17,Conflict_Resolution
True,LEFT,1350.0000027,,,,,LEFT,401.3652999999522,2019-12-12 13:17:08.203397,2019-12-12 13:17:08.812100,7,4.9937422,S17,Conflict_Resolution
False,LEFT,1000.000002,,,,,LEFT,335.2019000000155,2019-12-12 13:17:09.838329,2019-12-12 13:17:10.379866,8,4.9937422,S17,Conflict_Resolution
True,LEFT,666.6666680000001,,,,,LEFT,438.4299999999257,2019-12-12 13:17:11.070531,2019-12-12 13:17:11.716133,9,4.9937422,S17,Conflict_Resolution
False,LEFT,1350.0000027,,,,,LEFT,271.7175999999881,2019-12-12 13:17:13.086024,2019-12-12 13:17:13.564766,10,4.9937422,S17,Conflict_Resolution
False,RIGHT,1216.6666691,,,,,LEFT,286.6113000000041,2019-12-12 13:17:14.807094,2019-12-12 13:17:15.299901,11,4.9937422,S17,Conflict_Resolution
False,RIGHT,1466.6666696,,,,,RIGHT,390.3296999999384,2019-12-12 13:17:16.791137,2019-12-12 13:17:17.389614,12,4.9937422,S17,Conflict_Resolution
False,RIGHT,783.3333349000001,,,,,RIGHT,381.8574000000581,2019-12-12 13:17:18.199905,2019-12-12 13:17:18.789369,13,4.9937422,S17,Conflict_Resolution
True,RIGHT,733.3333348,,,,,LEFT,322.3427000000356,2019-12-12 13:17:19.547188,2019-12-12 13:17:20.075947,14,4.9937422,S17,Conflict_Resolution
False,LEFT,950.0000019,,,,,LEFT,360.2283999999827,2019-12-12 13:17:21.053506,2019-12-12 13:17:21.620017,15,4.9937422,S17,Conflict_Resolution
True,LEFT,1000.000002,,,,,RIGHT,392.93559999998706,2019-12-12 13:17:22.644128,2019-12-12 13:17:23.244747,16,4.9937422,S17,Conflict_Resolution
True,RIGHT,800.0000016,,,,,RIGHT,512.1391999999787,2019-12-12 13:17:24.069212,2019-12-12 13:17:24.788550,17,4.9937422,S17,Conflict_Resolution
True,LEFT,1316.6666693,,,,,LEFT,499.588000000017,2019-12-12 13:17:26.129618,2019-12-12 13:17:26.836393,18,4.9937422,S17,Conflict_Resolution
False,LEFT,850.0000017,,,,,LEFT,357.29890000004616,2019-12-12 13:17:27.712468,2019-12-12 13:17:28.275979,19,4.9937422,S17,Conflict_Resolution
True,LEFT,1400.0000028,,,,,LEFT,512.3260999999957,2019-12-12 13:17:29.700990,2019-12-12 13:17:30.419817,20,4.9937422,S17,Conflict_Resolution
True,LEFT,1466.6666696,,,,,LEFT,455.70229999998446,2019-12-12 13:17:31.909718,2019-12-12 13:17:32.573497,21,4.9937422,S17,Conflict_Resolution
False,RIGHT,900.0000018000001,,,,,RIGHT,364.5637000000761,2019-12-12 13:17:33.496676,2019-12-12 13:17:34.069147,22,4.9937422,S17,Conflict_Resolution
True,LEFT,1366.6666694,,,,,LEFT,464.6506000000272,2019-12-12 13:17:35.461175,2019-12-12 13:17:36.131987,23,4.9937422,S17,Conflict_Resolution
False,LEFT,583.3333345,,,,,LEFT,402.54140000001826,2019-12-12 13:17:36.738662,2019-12-12 13:17:37.349334,24,4.9937422,S17,Conflict_Resolution
False,RIGHT,1416.6666695000001,,,,,RIGHT,366.637800000035,2019-12-12 13:17:38.782981,2019-12-12 13:17:39.357786,25,4.9937422,S17,Conflict_Resolution
True,RIGHT,933.3333352,,,,,RIGHT,586.8391999999858,2019-12-12 13:17:40.306228,2019-12-12 13:17:41.100019,26,4.9937422,S17,Conflict_Resolution
True,RIGHT,1366.6666694,,,,,LEFT,355.74189999999817,2019-12-12 13:17:42.489700,2019-12-12 13:17:43.051890,27,4.9937422,S17,Conflict_Resolution
False,RIGHT,583.3333345,,,,,RIGHT,673.4920000000102,2019-12-12 13:17:43.659710,2019-12-12 13:17:44.541399,28,4.9937422,S17,Conflict_Resolution
False,RIGHT,1433.3333362,,,,,RIGHT,352.092999999968,2019-12-12 13:17:45.997409,2019-12-12 13:17:46.556502,29,4.9937422,S17,Conflict_Resolution
False,RIGHT,700.0000014,,,,,RIGHT,381.6739000000098,2019-12-12 13:17:47.279705,2019-12-12 13:17:47.868135,30,4.9937422,S17,Conflict_Resolution
True,LEFT,616.6666679,,,,,LEFT,487.6541000000998,2019-12-12 13:17:48.509799,2019-12-12 13:17:49.205338,31,4.9937422,S17,Conflict_Resolution
True,LEFT,1216.6666691,,,,,LEFT,439.6284999999125,2019-12-12 13:17:50.445410,2019-12-12 13:17:51.093661,32,4.9937422,S17,Conflict_Resolution
True,RIGHT,1416.6666695000001,,,,,LEFT,431.89589999997224,2019-12-12 13:17:52.533964,2019-12-12 13:17:53.173375,33,4.9937422,S17,Conflict_Resolution
False,LEFT,1066.6666688,,,,,LEFT,422.62400000004163,2019-12-12 13:17:54.263115,2019-12-12 13:17:54.892618,34,4.9937422,S17,Conflict_Resolution
True,LEFT,1116.6666689,,,,,LEFT,498.34789999999884,2019-12-12 13:17:56.035131,2019-12-12 13:17:56.740314,35,4.9937422,S17,Conflict_Resolution
True,LEFT,733.3333348,,,,,LEFT,491.224099999954,2019-12-12 13:17:57.490331,2019-12-12 13:17:58.189437,36,4.9937422,S17,Conflict_Resolution
True,LEFT,950.0000019,,,,,LEFT,467.52759999992577,2019-12-12 13:17:59.161635,2019-12-12 13:17:59.836398,37,4.9937422,S17,Conflict_Resolution
True,LEFT,816.6666683,,,,,LEFT,559.9869000000126,2019-12-12 13:18:00.677815,2019-12-12 13:18:01.445596,38,4.9937422,S17,Conflict_Resolution
False,RIGHT,1083.3333355,,,,,RIGHT,411.1047999999755,2019-12-12 13:18:02.554717,2019-12-12 13:18:03.172091,39,4.9937422,S17,Conflict_Resolution
True,LEFT,1266.6666692000001,,,,,LEFT,568.7073000000282,2019-12-12 13:18:04.460682,2019-12-12 13:18:05.237139,40,4.9937422,S17,Conflict_Resolution
False,RIGHT,1033.3333354000001,,,,,RIGHT,424.92059999995035,2019-12-12 13:18:06.292027,2019-12-12 13:18:06.925224,41,4.9937422,S17,Conflict_Resolution
True,RIGHT,883.3333351,,,,,RIGHT,508.5226999999577,2019-12-12 13:18:07.832771,2019-12-12 13:18:08.548337,42,4.9937422,S17,Conflict_Resolution
True,LEFT,533.3333344,,,,,LEFT,499.4400000000496,2019-12-12 13:18:09.105401,2019-12-12 13:18:09.813662,43,4.9937422,S17,Conflict_Resolution
False,RIGHT,1366.6666694,,,,,RIGHT,440.6934999999521,2019-12-12 13:18:11.196665,2019-12-12 13:18:11.844458,44,4.9937422,S17,Conflict_Resolution
False,RIGHT,1133.3333356,,,,,RIGHT,378.79449999991266,2019-12-12 13:18:13.002538,2019-12-12 13:18:13.589619,45,4.9937422,S17,Conflict_Resolution
True,LEFT,1416.6666695000001,,,,,LEFT,462.41699999995944,2019-12-12 13:18:15.030595,2019-12-12 13:18:15.700309,46,4.9937422,S17,Conflict_Resolution
False,RIGHT,500.000001,,,,,RIGHT,613.0035999999564,2019-12-12 13:18:16.224228,2019-12-12 13:18:17.044444,47,4.9937422,S17,Conflict_Resolution
True,RIGHT,950.0000019,,,,,LEFT,426.13140000003114,2019-12-12 13:18:18.019080,2019-12-12 13:18:18.653798,48,4.9937422,S17,Conflict_Resolution
True,LEFT,683.3333347,,,,,LEFT,444.60370000001603,2019-12-12 13:18:19.360936,2019-12-12 13:18:20.012036,49,4.9937422,S17,Conflict_Resolution
True,RIGHT,1266.6666692000001,,,,,RIGHT,549.8820000000251,2019-12-12 13:18:21.303880,2019-12-12 13:18:22.060495,50,4.9937422,S17,Conflict_Resolution
True,RIGHT,1133.3333356,,,,,RIGHT,491.71590000003107,2019-12-12 13:18:23.217607,2019-12-12 13:18:23.916822,51,4.9937422,S17,Conflict_Resolution
True,LEFT,516.6666677000001,,,,,LEFT,427.7617000000191,2019-12-12 13:18:24.457682,2019-12-12 13:18:25.091862,52,4.9937422,S17,Conflict_Resolution
False,LEFT,866.6666684,,,,,LEFT,324.97330000001057,2019-12-12 13:18:25.983963,2019-12-12 13:18:26.516521,53,4.9937422,S17,Conflict_Resolution
True,LEFT,1300.0000026,,,,,LEFT,429.6095999999352,2019-12-12 13:18:27.839943,2019-12-12 13:18:28.477122,54,4.9937422,S17,Conflict_Resolution
True,LEFT,566.6666678,,,,,LEFT,506.087999999977,2019-12-12 13:18:29.067627,2019-12-12 13:18:29.781339,55,4.9937422,S17,Conflict_Resolution
True,RIGHT,1383.3333361,,,,,LEFT,320.3025999999909,2019-12-12 13:18:31.188636,2019-12-12 13:18:31.717286,56,4.9937422,S17,Conflict_Resolution
True,LEFT,716.6666681,,,,,LEFT,427.7020000000675,2019-12-12 13:18:32.457635,2019-12-12 13:18:33.092688,57,4.9937422,S17,Conflict_Resolution
False,LEFT,1216.6666691,,,,,LEFT,357.65829999991183,2019-12-12 13:18:34.335962,2019-12-12 13:18:34.901337,58,4.9937422,S17,Conflict_Resolution
False,LEFT,1166.666669,,,,,LEFT,361.7287000000715,2019-12-12 13:18:36.091553,2019-12-12 13:18:36.661694,59,4.9937422,S17,Conflict_Resolution
False,RIGHT,1100.0000022,,,,,RIGHT,612.9230999999891,2019-12-12 13:18:37.784068,2019-12-12 13:18:38.604836,60,4.9937422,S17,Conflict_Resolution
False,RIGHT,1050.0000021,,,,,RIGHT,367.72659999996904,2019-12-12 13:18:39.677426,2019-12-12 13:18:40.252153,61,4.9937422,S17,Conflict_Resolution
True,RIGHT,900.0000018000001,,,,,RIGHT,534.0227000000368,2019-12-12 13:18:41.175345,2019-12-12 13:18:41.916407,62,4.9937422,S17,Conflict_Resolution
True,RIGHT,1466.6666696,,,,,RIGHT,551.5105000000631,2019-12-12 13:18:43.406201,2019-12-12 13:18:44.164015,63,4.9937422,S17,Conflict_Resolution
False,LEFT,1500.000003,,,,,LEFT,646.5367999999216,2019-12-12 13:18:45.686517,2019-12-12 13:18:46.540737,64,4.9937422,S17,Conflict_Resolution
True,LEFT,1100.0000022,,,,,LEFT,452.7065999999422,2019-12-12 13:18:47.664961,2019-12-12 13:18:48.324774,65,4.9937422,S17,Conflict_Resolution
True,RIGHT,1150.0000023,,,,,LEFT,354.0388000000121,2019-12-12 13:18:49.499102,2019-12-12 13:18:50.061617,66,4.9937422,S17,Conflict_Resolution
False,RIGHT,983.3333353,,,,,RIGHT,480.3130999999894,2019-12-12 13:18:51.069415,2019-12-12 13:18:51.756534,67,4.9937422,S17,Conflict_Resolution
False,RIGHT,600.0000012,,,,,RIGHT,348.141299999952,2019-12-12 13:18:52.377501,2019-12-12 13:18:52.932018,68,4.9937422,S17,Conflict_Resolution
True,LEFT,583.3333345,,,,,LEFT,505.2047000000357,2019-12-12 13:18:53.540369,2019-12-12 13:18:54.253140,69,4.9937422,S17,Conflict_Resolution
False,RIGHT,933.3333352,,,,,RIGHT,386.2712999999758,2019-12-12 13:18:55.210620,2019-12-12 13:18:55.804127,70,4.9937422,S17,Conflict_Resolution
False,LEFT,733.3333348,,,,,LEFT,397.3781999999346,2019-12-12 13:18:56.559587,2019-12-12 13:18:57.165578,71,4.9937422,S17,Conflict_Resolution
False,LEFT,1266.6666692000001,,,,,LEFT,364.38989999999194,2019-12-12 13:18:58.456505,2019-12-12 13:18:59.028161,72,4.9937422,S17,Conflict_Resolution
False,RIGHT,800.0000016,,,,,RIGHT,696.7776999999842,2019-12-12 13:18:59.853092,2019-12-12 13:19:00.756700,73,4.9937422,S17,Conflict_Resolution
False,RIGHT,550.0000011,,,,,RIGHT,361.36850000002596,2019-12-12 13:19:01.331842,2019-12-12 13:19:01.900523,74,4.9937422,S17,Conflict_Resolution
True,RIGHT,1216.6666691,,,,,RIGHT,455.17289999997956,2019-12-12 13:19:03.142157,2019-12-12 13:19:03.805346,75,4.9937422,S17,Conflict_Resolution
True,LEFT,783.3333349000001,,,,,LEFT,537.9286999999522,2019-12-12 13:19:04.611426,2019-12-12 13:19:05.357478,76,4.9937422,S17,Conflict_Resolution
True,LEFT,1200.0000024,,,,,LEFT,447.9019000000335,2019-12-12 13:19:06.581725,2019-12-12 13:19:07.236025,77,4.9937422,S17,Conflict_Resolution
False,RIGHT,1383.3333361,,,,,RIGHT,504.05589999991207,2019-12-12 13:19:08.645209,2019-12-12 13:19:09.356504,78,4.9937422,S17,Conflict_Resolution
True,RIGHT,783.3333349000001,,,,,RIGHT,873.4541999999692,2019-12-12 13:19:10.163895,2019-12-12 13:19:11.244735,79,4.9937422,S17,Conflict_Resolution
True,RIGHT,1183.3333357000001,,,,,RIGHT,577.6577000000316,2019-12-12 13:19:12.452024,2019-12-12 13:19:13.235948,80,4.9937422,S17,Conflict_Resolution
False,LEFT,1450.0000029,,,,,LEFT,392.16399999997975,2019-12-12 13:19:14.709085,2019-12-12 13:19:15.309703,81,4.9937422,S17,Conflict_Resolution
True,LEFT,866.6666684,,,,,LEFT,452.5527000000693,2019-12-12 13:19:16.200724,2019-12-12 13:19:16.860567,82,4.9937422,S17,Conflict_Resolution
False,LEFT,966.6666686,,,,,LEFT,334.2063999999709,2019-12-12 13:19:17.847532,2019-12-12 13:19:18.388097,83,4.9937422,S17,Conflict_Resolution
True,RIGHT,533.3333344,,,,,LEFT,378.6089999999831,2019-12-12 13:19:18.947023,2019-12-12 13:19:19.533007,84,4.9937422,S17,Conflict_Resolution
False,LEFT,1016.6666687000001,,,,,LEFT,414.25839999999425,2019-12-12 13:19:20.574910,2019-12-12 13:19:21.197291,85,4.9937422,S17,Conflict_Resolution
True,RIGHT,1316.6666693,,,,,LEFT,445.07900000007794,2019-12-12 13:19:22.535815,2019-12-12 13:19:23.188768,86,4.9937422,S17,Conflict_Resolution
False,LEFT,783.3333349000001,,,,,LEFT,345.3605999999354,2019-12-12 13:19:23.995653,2019-12-12 13:19:24.549203,87,4.9937422,S17,Conflict_Resolution
True,RIGHT,1233.3333358,,,,,RIGHT,406.6980000000058,2019-12-12 13:19:25.806326,2019-12-12 13:19:26.421287,88,4.9937422,S17,Conflict_Resolution
False,LEFT,1116.6666689,,,,,LEFT,420.14979999999014,2019-12-12 13:19:27.561126,2019-12-12 13:19:28.188050,89,4.9937422,S17,Conflict_Resolution
True,LEFT,916.6666685,,,,,LEFT,492.38019999995686,2019-12-12 13:19:29.128806,2019-12-12 13:19:29.829310,90,4.9937422,S17,Conflict_Resolution
True,RIGHT,850.0000017,,,,,RIGHT,462.1385000000373,2019-12-12 13:19:30.702857,2019-12-12 13:19:31.372697,91,4.9937422,S17,Conflict_Resolution
False,LEFT,666.6666680000001,,,,,LEFT,397.35059999998157,2019-12-12 13:19:32.063958,2019-12-12 13:19:32.668151,92,4.9937422,S17,Conflict_Resolution
True,RIGHT,1083.3333355,,,,,RIGHT,502.45510000002014,2019-12-12 13:19:33.774625,2019-12-12 13:19:34.483860,93,4.9937422,S17,Conflict_Resolution
False,LEFT,766.6666682,,,,,LEFT,341.5677999998934,2019-12-12 13:19:35.272119,2019-12-12 13:19:35.821299,94,4.9937422,S17,Conflict_Resolution
False,LEFT,716.6666681,,,,,LEFT,409.1946999999436,2019-12-12 13:19:36.556108,2019-12-12 13:19:37.173454,95,4.9937422,S17,Conflict_Resolution
True,RIGHT,833.333335,,,,,LEFT,350.10669999996935,2019-12-12 13:19:38.031624,2019-12-12 13:19:38.588158,96,4.9937422,S17,Conflict_Resolution
False,LEFT,533.3333344,,,,,LEFT,393.1978999999046,2019-12-12 13:19:39.148291,2019-12-12 13:19:39.750375,97,4.9937422,S17,Conflict_Resolution
False,LEFT,566.6666678,,,,,LEFT,419.8186999999507,2019-12-12 13:19:40.337462,2019-12-12 13:19:40.965155,98,4.9937422,S17,Conflict_Resolution
True,LEFT,966.6666686,,,,,LEFT,528.1161999999995,2019-12-12 13:19:41.957206,2019-12-12 13:19:42.692432,99,4.9937422,S17,Conflict_Resolution
False,RIGHT,683.3333347,,,,,RIGHT,355.84529999994174,2019-12-12 13:19:43.401611,2019-12-12 13:19:43.964844,100,4.9937422,S17,Conflict_Resolution
False,LEFT,633.3333346000001,,,,,LEFT,429.34120000006715,2019-12-12 13:19:44.623899,2019-12-12 13:19:45.259947,101,4.9937422,S17,Conflict_Resolution
False,RIGHT,1233.3333358,,,,,RIGHT,390.31920000002174,2019-12-12 13:19:46.519184,2019-12-12 13:19:47.116639,102,4.9937422,S17,Conflict_Resolution
True,LEFT,1016.6666687000001,,,,,LEFT,493.4183999999959,2019-12-12 13:19:48.159772,2019-12-12 13:19:48.861499,103,4.9937422,S17,Conflict_Resolution
False,RIGHT,1483.3333363,,,,,RIGHT,395.334200000093,2019-12-12 13:19:50.369584,2019-12-12 13:19:50.972234,104,4.9937422,S17,Conflict_Resolution
False,RIGHT,883.3333351,,,,,RIGHT,373.1800000000476,2019-12-12 13:19:51.880073,2019-12-12 13:19:52.460826,105,4.9937422,S17,Conflict_Resolution
False,LEFT,516.6666677000001,,,,,LEFT,412.4685000000454,2019-12-12 13:19:53.001379,2019-12-12 13:19:53.621365,106,4.9937422,S17,Conflict_Resolution
False,LEFT,900.0000018000001,,,,,LEFT,332.6829000000089,2019-12-12 13:19:54.545018,2019-12-12 13:19:55.084854,107,4.9937422,S17,Conflict_Resolution
False,RIGHT,633.3333346000001,,,,,LEFT,302.67079999998714,2019-12-12 13:19:55.743156,2019-12-12 13:19:56.251932,108,4.9937422,S17,Conflict_Resolution
False,LEFT,1416.6666695000001,,,,,LEFT,384.67709999997624,2019-12-12 13:19:57.692540,2019-12-12 13:19:58.284004,109,4.9937422,S17,Conflict_Resolution
True,LEFT,766.6666682,,,,,LEFT,586.12949999997,2019-12-12 13:19:59.074790,2019-12-12 13:19:59.869388,110,4.9937422,S17,Conflict_Resolution
True,RIGHT,1033.3333354000001,,,,,RIGHT,646.0681000000932,2019-12-12 13:20:00.926910,2019-12-12 13:20:01.780636,111,4.9937422,S17,Conflict_Resolution
False,RIGHT,950.0000019,,,,,RIGHT,419.22680000004675,2019-12-12 13:20:02.754686,2019-12-12 13:20:03.379993,112,4.9937422,S17,Conflict_Resolution
True,RIGHT,1483.3333363,,,,,LEFT,348.1054999999742,2019-12-12 13:20:04.889493,2019-12-12 13:20:05.444037,113,4.9937422,S17,Conflict_Resolution
True,LEFT,1500.000003,,,,,RIGHT,428.29889999995885,2019-12-12 13:20:06.969455,2019-12-12 13:20:07.605801,114,4.9937422,S17,Conflict_Resolution
True,RIGHT,683.3333347,,,,,RIGHT,507.19420000007176,2019-12-12 13:20:08.305917,2019-12-12 13:20:09.020488,115,4.9937422,S17,Conflict_Resolution
True,LEFT,1250.0000025,,,,,LEFT,557.9332999999451,2019-12-12 13:20:10.295538,2019-12-12 13:20:11.060319,116,4.9937422,S17,Conflict_Resolution
False,LEFT,683.3333347,,,,,LEFT,396.5574999999717,2019-12-12 13:20:11.768426,2019-12-12 13:20:12.372180,117,4.9937422,S17,Conflict_Resolution
False,LEFT,916.6666685,,,,,LEFT,331.996199999935,2019-12-12 13:20:13.313052,2019-12-12 13:20:13.851976,118,4.9937422,S17,Conflict_Resolution
True,RIGHT,1100.0000022,,,,,RIGHT,669.075199999952,2019-12-12 13:20:14.976080,2019-12-12 13:20:15.853352,119,4.9937422,S17,Conflict_Resolution
True,LEFT,633.3333346000001,,,,,RIGHT,366.6542999999365,2019-12-12 13:20:16.511298,2019-12-12 13:20:17.085527,120,4.9937422,S17,Conflict_Resolution
False,RIGHT,1000.000002,,,,,RIGHT,350.4695000000311,2019-12-12 13:20:18.103371,2019-12-12 13:20:18.659994,121,4.9937422,S17,Conflict_Resolution
False,LEFT,1300.0000026,,,,,LEFT,355.30039999991914,2019-12-12 13:20:19.986591,2019-12-12 13:20:20.548114,122,4.9937422,S17,Conflict_Resolution
False,RIGHT,850.0000017,,,,,RIGHT,454.5742999999902,2019-12-12 13:20:21.423115,2019-12-12 13:20:22.085673,123,4.9937422,S17,Conflict_Resolution
True,LEFT,1450.0000029,,,,,LEFT,1212.752900000055,2019-12-12 13:20:23.561051,2019-12-12 13:20:24.980341,124,4.9937422,S17,Conflict_Resolution
True,LEFT,900.0000018000001,,,,,LEFT,580.4892999999538,2019-12-12 13:20:25.897298,2019-12-12 13:20:26.684286,125,4.9937422,S17,Conflict_Resolution
True,RIGHT,583.3333345,,,,,LEFT,337.23349999991115,2019-12-12 13:20:27.291640,2019-12-12 13:20:27.837508,126,4.9937422,S17,Conflict_Resolution
True,RIGHT,1433.3333362,,,,,RIGHT,701.075899999978,2019-12-12 13:20:29.296157,2019-12-12 13:20:30.205374,127,4.9937422,S17,Conflict_Resolution
False,LEFT,1316.6666693,,,,,LEFT,531.1530999999832,2019-12-12 13:20:31.546007,2019-12-12 13:20:32.284529,128,4.9937422,S17,Conflict_Resolution
False,RIGHT,1316.6666693,,,,,RIGHT,548.8337000000456,2019-12-12 13:20:33.624100,2019-12-12 13:20:34.381706,129,4.9937422,S17,Conflict_Resolution
False,RIGHT,733.3333348,,,,,RIGHT,331.1717999999928,2019-12-12 13:20:35.138074,2019-12-12 13:20:35.676037,130,4.9937422,S17,Conflict_Resolution
False,LEFT,1150.0000023,,,,,LEFT,498.12599999995655,2019-12-12 13:20:36.851592,2019-12-12 13:20:37.556180,131,4.9937422,S17,Conflict_Resolution
False,RIGHT,833.333335,,,,,RIGHT,398.35820000007516,2019-12-12 13:20:38.415053,2019-12-12 13:20:39.021439,132,4.9937422,S17,Conflict_Resolution
False,RIGHT,1283.3333359,,,,,RIGHT,339.0620999999783,2019-12-12 13:20:40.330828,2019-12-12 13:20:40.877416,133,4.9937422,S17,Conflict_Resolution
True,RIGHT,650.0000013,,,,,RIGHT,349.38179999994645,2019-12-12 13:20:41.551770,2019-12-12 13:20:42.109466,134,4.9937422,S17,Conflict_Resolution
True,RIGHT,1333.3333360000001,,,,,RIGHT,434.4137000000501,2019-12-12 13:20:43.467032,2019-12-12 13:20:44.107895,135,4.9937422,S17,Conflict_Resolution
False,LEFT,616.6666679,,,,,LEFT,415.56739999998626,2019-12-12 13:20:44.750236,2019-12-12 13:20:45.373427,136,4.9937422,S17,Conflict_Resolution
True,RIGHT,1050.0000021,,,,,LEFT,476.21970000000147,2019-12-12 13:20:46.449420,2019-12-12 13:20:47.132769,137,4.9937422,S17,Conflict_Resolution
True,RIGHT,633.3333346000001,,,,,RIGHT,493.82489999993595,2019-12-12 13:20:47.791637,2019-12-12 13:20:48.492736,138,4.9937422,S17,Conflict_Resolution
False,LEFT,1200.0000024,,,,,LEFT,576.1141000000407,2019-12-12 13:20:49.717820,2019-12-12 13:20:50.501728,139,4.9937422,S17,Conflict_Resolution
False,LEFT,1050.0000021,,,,,LEFT,300.2638000000388,2019-12-12 13:20:51.577033,2019-12-12 13:20:52.084161,140,4.9937422,S17,Conflict_Resolution
True,LEFT,850.0000017,,,,,LEFT,277.7943999999479,2019-12-12 13:20:52.959804,2019-12-12 13:20:53.445736,141,4.9937422,S17,Conflict_Resolution
False,LEFT,1100.0000022,,,,,LEFT,459.95959999993374,2019-12-12 13:20:54.568998,2019-12-12 13:20:55.236415,142,4.9937422,S17,Conflict_Resolution
True,RIGHT,750.0000015,,,,,RIGHT,474.4097000000238,2019-12-12 13:20:56.010570,2019-12-12 13:20:56.692243,143,4.9937422,S17,Conflict_Resolution
False,RIGHT,650.0000013,,,,,RIGHT,334.48119999991377,2019-12-12 13:20:57.366643,2019-12-12 13:20:57.909422,144,4.9937422,S17,Conflict_Resolution
False,LEFT,1466.6666696,,,,,LEFT,380.14140000018415,2019-12-12 13:20:59.400799,2019-12-12 13:20:59.987829,145,4.9937422,S17,Conflict_Resolution
False,LEFT,1366.6666694,,,,,LEFT,393.913399999974,2019-12-12 13:21:01.379676,2019-12-12 13:21:01.980205,146,4.9937422,S17,Conflict_Resolution
False,RIGHT,533.3333344,,,,,LEFT,411.8559999999434,2019-12-12 13:21:02.529631,2019-12-12 13:21:03.149673,147,4.9937422,S17,Conflict_Resolution
False,RIGHT,750.0000015,,,,,RIGHT,370.53209999999126,2019-12-12 13:21:03.923220,2019-12-12 13:21:04.500718,148,4.9937422,S17,Conflict_Resolution
True,LEFT,1150.0000023,,,,,LEFT,475.078799999892,2019-12-12 13:21:05.674525,2019-12-12 13:21:06.357435,149,4.9937422,S17,Conflict_Resolution
False,LEFT,1400.0000028,,,,,LEFT,440.0756000000001,2019-12-12 13:21:07.780985,2019-12-12 13:21:08.428494,150,4.9937422,S17,Conflict_Resolution
False,RIGHT,1333.3333360000001,,,,,RIGHT,378.89419999987695,2019-12-12 13:21:09.786385,2019-12-12 13:21:10.373084,151,4.9937422,S17,Conflict_Resolution
True,RIGHT,600.0000012,,,,,RIGHT,410.6595999999172,2019-12-12 13:21:10.994239,2019-12-12 13:21:11.612145,152,4.9937422,S17,Conflict_Resolution
True,LEFT,1050.0000021,,,,,LEFT,534.6128999999564,2019-12-12 13:21:12.686744,2019-12-12 13:21:13.429755,153,4.9937422,S17,Conflict_Resolution
True,RIGHT,1000.000002,,,,,RIGHT,465.49190000018825,2019-12-12 13:21:14.451729,2019-12-12 13:21:15.124001,154,4.9937422,S17,Conflict_Resolution
True,RIGHT,983.3333353,,,,,RIGHT,514.0449000000444,2019-12-12 13:21:16.131658,2019-12-12 13:21:16.852781,155,4.9937422,S17,Conflict_Resolution
False,LEFT,1250.0000025,,,,,LEFT,382.34590000001845,2019-12-12 13:21:18.127090,2019-12-12 13:21:18.716766,156,4.9937422,S17,Conflict_Resolution
True,RIGHT,550.0000011,,,,,LEFT,369.1359999997985,2019-12-12 13:21:19.292228,2019-12-12 13:21:19.868167,157,4.9937422,S17,Conflict_Resolution
False,RIGHT,1266.6666692000001,,,,,RIGHT,365.761399999883,2019-12-12 13:21:21.159761,2019-12-12 13:21:21.732439,158,4.9937422,S17,Conflict_Resolution
True,RIGHT,1283.3333359,,,,,RIGHT,357.9156000000694,2019-12-12 13:21:23.039771,2019-12-12 13:21:23.604279,159,4.9937422,S17,Conflict_Resolution
False,LEFT,816.6666683,,,,,LEFT,469.8998000001211,2019-12-12 13:21:24.439936,2019-12-12 13:21:25.116053,160,4.9937422,S17,Conflict_Resolution
