Stimulus_Side,ITI,Stop_Signal,Stop_Signal_RT,Previous_Response,Previous_RT,Response,RT,Trial_Time_Onset,Trial_Time_End,Trial_Order,Duration,Participant,Task
LEFT,1400.0000028,False,,,,LEFT,322.4083000000064,2019-12-13 12:50:53.134904,2019-12-13 12:50:53.665261,1,5.168220416666667,S18,Response_Inhibition
LEFT,900.0000018000001,False,,,,LEFT,258.582199999978,2019-12-13 12:50:54.574930,2019-12-13 12:50:55.040495,2,5.168220416666667,S18,Response_Inhibition
LEFT,833.333335,False,,,,LEFT,254.96859999998378,2019-12-13 12:50:55.882036,2019-12-13 12:50:56.344638,3,5.168220416666667,S18,Response_Inhibition
RIGHT,950.0000019,False,,,,RIGHT,290.4104000000416,2019-12-13 12:50:57.302582,2019-12-13 12:50:57.800986,4,5.168220416666667,S18,Response_Inhibition
LEFT,1250.0000025,False,,,,LEFT,277.527799999973,2019-12-13 12:50:59.059409,2019-12-13 12:50:59.544522,5,5.168220416666667,S18,Response_Inhibition
RIGHT,1000.000002,True,183.3333337,,,RIGHT,236.79893369998135,2019-12-13 12:51:00.553524,2019-12-13 12:51:01.000994,6,5.168220416666667,S18,Response_Inhibition
LEFT,500.000001,True,183.3333337,,,LEFT,311.45223370000406,2019-12-13 12:51:01.510623,2019-12-13 12:51:02.033326,7,5.168220416666667,S18,Response_Inhibition
LEFT,966.6666686,False,,,,LEFT,408.9061999999899,2019-12-13 12:51:03.008686,2019-12-13 12:51:03.625724,8,5.168220416666667,S18,Response_Inhibition
LEFT,1216.6666691,False,,,,LEFT,302.0093000000088,2019-12-13 12:51:04.851108,2019-12-13 12:51:05.360577,9,5.168220416666667,S18,Response_Inhibition
RIGHT,1416.6666695000001,False,,,,RIGHT,247.45470000004843,2019-12-13 12:51:06.786022,2019-12-13 12:51:07.241014,10,5.168220416666667,S18,Response_Inhibition
RIGHT,1100.0000022,False,,,,RIGHT,283.619500000043,2019-12-13 12:51:08.349143,2019-12-13 12:51:08.841145,11,5.168220416666667,S18,Response_Inhibition
RIGHT,833.333335,True,200.0000004,,,RIGHT,314.92790039999784,2019-12-13 12:51:09.682899,2019-12-13 12:51:10.209118,12,5.168220416666667,S18,Response_Inhibition
RIGHT,1066.6666688,False,,,,RIGHT,323.0924000000073,2019-12-13 12:51:11.285743,2019-12-13 12:51:11.817376,13,5.168220416666667,S18,Response_Inhibition
RIGHT,683.3333347,False,,,,RIGHT,371.5915000000223,2019-12-13 12:51:12.510030,2019-12-13 12:51:13.089406,14,5.168220416666667,S18,Response_Inhibition
RIGHT,733.3333348,False,,,,RIGHT,321.8812000000071,2019-12-13 12:51:13.830938,2019-12-13 12:51:14.360806,15,5.168220416666667,S18,Response_Inhibition
RIGHT,1350.0000027,False,,,,RIGHT,737.7279000000385,2019-12-13 12:51:15.719169,2019-12-13 12:51:16.664833,16,5.168220416666667,S18,Response_Inhibition
RIGHT,583.3333345,False,,,,RIGHT,304.2197999999985,2019-12-13 12:51:17.256865,2019-12-13 12:51:17.769997,17,5.168220416666667,S18,Response_Inhibition
LEFT,1116.6666689,False,,,,LEFT,458.03949999998395,2019-12-13 12:51:18.895532,2019-12-13 12:51:19.561045,18,5.168220416666667,S18,Response_Inhibition
RIGHT,1133.3333356,False,,,,RIGHT,442.3204999999939,2019-12-13 12:51:20.702942,2019-12-13 12:51:21.354207,19,5.168220416666667,S18,Response_Inhibition
RIGHT,750.0000015,True,116.6666669,,,RIGHT,341.21706689999826,2019-12-13 12:51:22.113193,2019-12-13 12:51:22.665352,20,5.168220416666667,S18,Response_Inhibition
RIGHT,1366.6666694,True,100.0000002,,,RIGHT,365.2346001999852,2019-12-13 12:51:24.040164,2019-12-13 12:51:24.617090,21,5.168220416666667,S18,Response_Inhibition
RIGHT,516.6666677000001,False,,,,RIGHT,714.7075000000314,2019-12-13 12:51:25.142651,2019-12-13 12:51:26.064781,22,5.168220416666667,S18,Response_Inhibition
LEFT,1033.3333354000001,False,,,,LEFT,414.1345999999544,2019-12-13 12:51:27.106972,2019-12-13 12:51:27.729433,23,5.168220416666667,S18,Response_Inhibition
RIGHT,533.3333344,True,50.0000001,,,Time_Max_Exceeded,1500.0585001000115,2019-12-13 12:51:28.270952,2019-12-13 12:51:29.774457,24,5.168220416666667,S18,Response_Inhibition
LEFT,1050.0000021,False,,,,LEFT,342.7347999999597,2019-12-13 12:51:30.834758,2019-12-13 12:51:31.384652,25,5.168220416666667,S18,Response_Inhibition
LEFT,883.3333351,False,,,,LEFT,316.3291999999842,2019-12-13 12:51:32.276853,2019-12-13 12:51:32.801370,26,5.168220416666667,S18,Response_Inhibition
RIGHT,883.3333351,True,250.0000005,,,RIGHT,472.5489004999925,2019-12-13 12:51:33.693075,2019-12-13 12:51:34.376778,27,5.168220416666667,S18,Response_Inhibition
LEFT,1383.3333361,True,0.0,,,Time_Max_Exceeded,1500.0678000000107,2019-12-13 12:51:35.768736,2019-12-13 12:51:37.269177,28,5.168220416666667,S18,Response_Inhibition
RIGHT,1100.0000022,False,,,,RIGHT,431.7158000000063,2019-12-13 12:51:38.378046,2019-12-13 12:51:39.018408,29,5.168220416666667,S18,Response_Inhibition
LEFT,1283.3333359,False,,,,LEFT,434.94739999999865,2019-12-13 12:51:40.310114,2019-12-13 12:51:40.953266,30,5.168220416666667,S18,Response_Inhibition
LEFT,1083.3333355,True,150.0000003,,,LEFT,400.1381002999583,2019-12-13 12:51:42.045324,2019-12-13 12:51:42.657232,31,5.168220416666667,S18,Response_Inhibition
LEFT,800.0000016,False,,,,LEFT,631.176900000014,2019-12-13 12:51:43.466469,2019-12-13 12:51:44.305020,32,5.168220416666667,S18,Response_Inhibition
RIGHT,866.6666684,False,,,,RIGHT,540.8681999999772,2019-12-13 12:51:45.180721,2019-12-13 12:51:45.929687,33,5.168220416666667,S18,Response_Inhibition
RIGHT,1116.6666689,True,66.6666668,,,Time_Max_Exceeded,1500.0930667999735,2019-12-13 12:51:47.054646,2019-12-13 12:51:48.557695,34,5.168220416666667,S18,Response_Inhibition
LEFT,566.6666678,False,,,,LEFT,379.4335999999703,2019-12-13 12:51:49.133522,2019-12-13 12:51:49.720791,35,5.168220416666667,S18,Response_Inhibition
RIGHT,783.3333349000001,True,216.6666671,,,RIGHT,428.8259670999962,2019-12-13 12:51:50.513211,2019-12-13 12:51:51.154991,36,5.168220416666667,S18,Response_Inhibition
LEFT,1266.6666692000001,True,200.0000004,,,Time_Max_Exceeded,1500.0502004000439,2019-12-13 12:51:52.430634,2019-12-13 12:51:53.934234,37,5.168220416666667,S18,Response_Inhibition
RIGHT,850.0000017,False,,,,RIGHT,384.04960000002575,2019-12-13 12:51:54.793093,2019-12-13 12:51:55.385136,38,5.168220416666667,S18,Response_Inhibition
RIGHT,633.3333346000001,False,,,,RIGHT,453.7629000000152,2019-12-13 12:51:56.027540,2019-12-13 12:51:56.689304,39,5.168220416666667,S18,Response_Inhibition
LEFT,583.3333345,True,116.6666669,,,LEFT,412.45926690002705,2019-12-13 12:51:57.281700,2019-12-13 12:51:57.905085,40,5.168220416666667,S18,Response_Inhibition
LEFT,700.0000014,False,,,,LEFT,507.8046000000427,2019-12-13 12:51:58.613178,2019-12-13 12:51:59.328636,41,5.168220416666667,S18,Response_Inhibition
RIGHT,950.0000019,False,,,,RIGHT,394.89100000002963,2019-12-13 12:52:00.287127,2019-12-13 12:52:00.890432,42,5.168220416666667,S18,Response_Inhibition
RIGHT,1316.6666693,False,,,,RIGHT,409.45399999998244,2019-12-13 12:52:02.215632,2019-12-13 12:52:02.833278,43,5.168220416666667,S18,Response_Inhibition
RIGHT,1466.6666696,False,,,,RIGHT,412.0192999999972,2019-12-13 12:52:04.309438,2019-12-13 12:52:04.929216,44,5.168220416666667,S18,Response_Inhibition
LEFT,950.0000019,False,,,,LEFT,552.7251999999976,2019-12-13 12:52:05.889130,2019-12-13 12:52:06.650224,45,5.168220416666667,S18,Response_Inhibition
LEFT,850.0000017,False,,,,LEFT,452.32559999999467,2019-12-13 12:52:07.509410,2019-12-13 12:52:08.169506,46,5.168220416666667,S18,Response_Inhibition
LEFT,1300.0000026,False,,,,LEFT,378.9869999999951,2019-12-13 12:52:09.478206,2019-12-13 12:52:10.064502,47,5.168220416666667,S18,Response_Inhibition
LEFT,1500.000003,False,,,,LEFT,427.8340999999841,2019-12-13 12:52:11.572986,2019-12-13 12:52:12.209986,48,5.168220416666667,S18,Response_Inhibition
LEFT,733.3333348,True,166.66666700000002,,,LEFT,373.8867669999723,2019-12-13 12:52:12.952013,2019-12-13 12:52:13.536656,49,5.168220416666667,S18,Response_Inhibition
LEFT,1000.000002,False,,,,LEFT,511.5735999999629,2019-12-13 12:52:14.545144,2019-12-13 12:52:15.264819,50,5.168220416666667,S18,Response_Inhibition
LEFT,950.0000019,False,,,,LEFT,353.4487000000013,2019-12-13 12:52:16.223354,2019-12-13 12:52:16.784632,51,5.168220416666667,S18,Response_Inhibition
LEFT,983.3333353,True,33.3333334,,,Time_Max_Exceeded,1500.0537333999855,2019-12-13 12:52:17.777144,2019-12-13 12:52:19.280493,52,5.168220416666667,S18,Response_Inhibition
RIGHT,1266.6666692000001,True,16.6666667,,,Time_Max_Exceeded,1500.0567667000082,2019-12-13 12:52:20.556505,2019-12-13 12:52:22.060442,53,5.168220416666667,S18,Response_Inhibition
RIGHT,1200.0000024,False,,,,RIGHT,468.40779999996585,2019-12-13 12:52:23.268579,2019-12-13 12:52:23.945072,54,5.168220416666667,S18,Response_Inhibition
LEFT,850.0000017,True,183.3333337,,,LEFT,410.1121337000337,2019-12-13 12:52:24.803986,2019-12-13 12:52:25.425119,55,5.168220416666667,S18,Response_Inhibition
RIGHT,1483.3333363,False,,,,RIGHT,443.41320000000906,2019-12-13 12:52:26.918106,2019-12-13 12:52:27.569658,56,5.168220416666667,S18,Response_Inhibition
RIGHT,850.0000017,True,33.3333334,,,Time_Max_Exceeded,1500.0510334000037,2019-12-13 12:52:28.428413,2019-12-13 12:52:29.933064,57,5.168220416666667,S18,Response_Inhibition
LEFT,1266.6666692000001,True,266.6666672,,,LEFT,421.95446719999643,2019-12-13 12:52:31.208601,2019-12-13 12:52:31.841151,58,5.168220416666667,S18,Response_Inhibition
LEFT,783.3333349000001,True,166.66666700000002,,,Time_Max_Exceeded,1500.2001669999872,2019-12-13 12:52:32.633045,2019-12-13 12:52:34.137097,59,5.168220416666667,S18,Response_Inhibition
LEFT,1416.6666695000001,False,,,,LEFT,431.27019999997174,2019-12-13 12:52:35.561803,2019-12-13 12:52:36.200635,60,5.168220416666667,S18,Response_Inhibition
LEFT,1233.3333358,False,,,,LEFT,398.8170000000082,2019-12-13 12:52:37.442293,2019-12-13 12:52:38.048711,61,5.168220416666667,S18,Response_Inhibition
RIGHT,1366.6666694,True,50.0000001,,,Time_Max_Exceeded,1500.0680000999876,2019-12-13 12:52:39.423631,2019-12-13 12:52:40.927620,62,5.168220416666667,S18,Response_Inhibition
LEFT,516.6666677000001,False,,,,LEFT,483.2277999999519,2019-12-13 12:52:41.454224,2019-12-13 12:52:42.145000,63,5.168220416666667,S18,Response_Inhibition
RIGHT,616.6666679,False,,,,RIGHT,478.72419999998783,2019-12-13 12:52:42.769955,2019-12-13 12:52:43.457724,64,5.168220416666667,S18,Response_Inhibition
RIGHT,800.0000016,False,,,,RIGHT,486.1854999999764,2019-12-13 12:52:44.267653,2019-12-13 12:52:44.961238,65,5.168220416666667,S18,Response_Inhibition
RIGHT,900.0000018000001,False,,,,RIGHT,371.5546000000245,2019-12-13 12:52:45.869420,2019-12-13 12:52:46.448698,66,5.168220416666667,S18,Response_Inhibition
LEFT,1100.0000022,False,,,,LEFT,372.0648000000324,2019-12-13 12:52:47.557375,2019-12-13 12:52:48.136825,67,5.168220416666667,S18,Response_Inhibition
LEFT,750.0000015,False,,,,LEFT,385.0932999999941,2019-12-13 12:52:48.896311,2019-12-13 12:52:49.489769,68,5.168220416666667,S18,Response_Inhibition
LEFT,550.0000011,True,16.6666667,,,Time_Max_Exceeded,1500.0467666999766,2019-12-13 12:52:50.048773,2019-12-13 12:52:51.551502,69,5.168220416666667,S18,Response_Inhibition
LEFT,916.6666685,True,233.3333338,,,LEFT,367.9983338000409,2019-12-13 12:52:52.478027,2019-12-13 12:52:53.058212,70,5.168220416666667,S18,Response_Inhibition
LEFT,816.6666683,False,,,,LEFT,477.5024000000485,2019-12-13 12:52:53.884075,2019-12-13 12:52:54.569385,71,5.168220416666667,S18,Response_Inhibition
RIGHT,1400.0000028,False,,,,RIGHT,559.4241000000011,2019-12-13 12:52:55.977750,2019-12-13 12:52:56.745227,72,5.168220416666667,S18,Response_Inhibition
RIGHT,533.3333344,False,,,,RIGHT,393.100000000004,2019-12-13 12:52:57.288451,2019-12-13 12:52:57.889105,73,5.168220416666667,S18,Response_Inhibition
RIGHT,1050.0000021,False,,,,RIGHT,421.3649000000146,2019-12-13 12:52:58.947884,2019-12-13 12:52:59.577515,74,5.168220416666667,S18,Response_Inhibition
LEFT,1066.6666688,True,133.3333336,,,Time_Max_Exceeded,1500.0518335999905,2019-12-13 12:53:00.652095,2019-12-13 12:53:02.155691,75,5.168220416666667,S18,Response_Inhibition
RIGHT,983.3333353,True,83.33333350000001,,,RIGHT,393.45783349997214,2019-12-13 12:53:03.148799,2019-12-13 12:53:03.753358,76,5.168220416666667,S18,Response_Inhibition
RIGHT,1150.0000023,False,,,,RIGHT,473.6062000000061,2019-12-13 12:53:04.912297,2019-12-13 12:53:05.593837,77,5.168220416666667,S18,Response_Inhibition
RIGHT,566.6666678,True,66.6666668,,,Time_Max_Exceeded,1500.0530668000176,2019-12-13 12:53:06.169136,2019-12-13 12:53:07.672201,78,5.168220416666667,S18,Response_Inhibition
RIGHT,1450.0000029,True,16.6666667,,,Time_Max_Exceeded,1500.0698666999979,2019-12-13 12:53:09.131465,2019-12-13 12:53:10.634540,79,5.168220416666667,S18,Response_Inhibition
RIGHT,1016.6666687000001,False,,,,RIGHT,404.52670000001945,2019-12-13 12:53:11.660227,2019-12-13 12:53:12.273691,80,5.168220416666667,S18,Response_Inhibition
RIGHT,1050.0000021,False,,,,RIGHT,428.50880000003144,2019-12-13 12:53:13.332664,2019-12-13 12:53:13.969590,81,5.168220416666667,S18,Response_Inhibition
RIGHT,1033.3333354000001,True,100.0000002,,,RIGHT,338.1903001999852,2019-12-13 12:53:15.011924,2019-12-13 12:53:15.560818,82,5.168220416666667,S18,Response_Inhibition
RIGHT,766.6666682,False,,,,RIGHT,536.3552999999683,2019-12-13 12:53:16.337108,2019-12-13 12:53:17.080830,83,5.168220416666667,S18,Response_Inhibition
LEFT,633.3333346000001,True,83.33333350000001,,,LEFT,403.3655334999005,2019-12-13 12:53:17.722596,2019-12-13 12:53:18.336988,84,5.168220416666667,S18,Response_Inhibition
LEFT,583.3333345,False,,,,LEFT,496.020499999986,2019-12-13 12:53:18.929527,2019-12-13 12:53:19.633028,85,5.168220416666667,S18,Response_Inhibition
RIGHT,1316.6666693,False,,,,RIGHT,490.84019999997963,2019-12-13 12:53:20.958965,2019-12-13 12:53:21.657646,86,5.168220416666667,S18,Response_Inhibition
LEFT,616.6666679,False,,,,LEFT,431.27849999996215,2019-12-13 12:53:22.283496,2019-12-13 12:53:22.921847,87,5.168220416666667,S18,Response_Inhibition
LEFT,1166.666669,True,83.33333350000001,,,Time_Max_Exceeded,1500.0466334999694,2019-12-13 12:53:24.097177,2019-12-13 12:53:25.600493,88,5.168220416666667,S18,Response_Inhibition
RIGHT,1416.6666695000001,True,283.3333339,,,RIGHT,394.78223389991393,2019-12-13 12:53:27.026987,2019-12-13 12:53:27.633483,89,5.168220416666667,S18,Response_Inhibition
RIGHT,1466.6666696,False,,,,RIGHT,588.3536000000049,2019-12-13 12:53:29.108811,2019-12-13 12:53:29.904858,90,5.168220416666667,S18,Response_Inhibition
RIGHT,916.6666685,True,216.6666671,,,RIGHT,487.89036710006417,2019-12-13 12:53:30.829916,2019-12-13 12:53:31.529438,91,5.168220416666667,S18,Response_Inhibition
RIGHT,783.3333349000001,False,,,,RIGHT,623.7525000000232,2019-12-13 12:53:32.321354,2019-12-13 12:53:33.153815,92,5.168220416666667,S18,Response_Inhibition
LEFT,1433.3333362,False,,,,LEFT,501.32699999994657,2019-12-13 12:53:34.596057,2019-12-13 12:53:35.304906,93,5.168220416666667,S18,Response_Inhibition
LEFT,1183.3333357000001,False,,,,LEFT,415.8648999999741,2019-12-13 12:53:36.496838,2019-12-13 12:53:37.121073,94,5.168220416666667,S18,Response_Inhibition
RIGHT,716.6666681,False,,,,RIGHT,451.32349999994403,2019-12-13 12:53:37.846101,2019-12-13 12:53:38.505055,95,5.168220416666667,S18,Response_Inhibition
RIGHT,1283.3333359,False,,,,RIGHT,332.0683999999119,2019-12-13 12:53:39.796981,2019-12-13 12:53:40.336913,96,5.168220416666667,S18,Response_Inhibition
RIGHT,733.3333348,False,,,,RIGHT,474.1688999999951,2019-12-13 12:53:41.078898,2019-12-13 12:53:41.762105,97,5.168220416666667,S18,Response_Inhibition
LEFT,533.3333344,True,216.6666671,,,Time_Max_Exceeded,1500.048067100053,2019-12-13 12:53:42.304621,2019-12-13 12:53:43.808308,98,5.168220416666667,S18,Response_Inhibition
LEFT,1200.0000024,True,33.3333334,,,Time_Max_Exceeded,1500.051633400025,2019-12-13 12:53:45.017581,2019-12-13 12:53:46.520581,99,5.168220416666667,S18,Response_Inhibition
LEFT,1150.0000023,False,,,,LEFT,433.4933000000092,2019-12-13 12:53:47.680503,2019-12-13 12:53:48.321834,100,5.168220416666667,S18,Response_Inhibition
RIGHT,1183.3333357000001,True,166.66666700000002,,,RIGHT,380.14936699998594,2019-12-13 12:53:49.514116,2019-12-13 12:53:50.106217,101,5.168220416666667,S18,Response_Inhibition
RIGHT,666.6666680000001,False,,,,RIGHT,523.8908000000038,2019-12-13 12:53:50.781412,2019-12-13 12:53:51.513401,102,5.168220416666667,S18,Response_Inhibition
RIGHT,1333.3333360000001,False,,,,RIGHT,586.0102999999981,2019-12-13 12:53:52.854789,2019-12-13 12:53:53.649292,103,5.168220416666667,S18,Response_Inhibition
LEFT,1050.0000021,False,,,,LEFT,501.8374999999651,2019-12-13 12:53:54.708148,2019-12-13 12:53:55.417215,104,5.168220416666667,S18,Response_Inhibition
RIGHT,1233.3333358,False,,,,RIGHT,582.0161999999982,2019-12-13 12:53:56.658908,2019-12-13 12:53:57.449110,105,5.168220416666667,S18,Response_Inhibition
RIGHT,650.0000013,True,283.3333339,,,RIGHT,427.01183389996453,2019-12-13 12:53:58.107365,2019-12-13 12:53:58.744780,106,5.168220416666667,S18,Response_Inhibition
RIGHT,1083.3333355,True,250.0000005,,,Time_Max_Exceeded,1500.0468005000637,2019-12-13 12:53:59.837257,2019-12-13 12:54:01.340477,107,5.168220416666667,S18,Response_Inhibition
LEFT,783.3333349000001,False,,,,LEFT,427.82529999999497,2019-12-13 12:54:02.133746,2019-12-13 12:54:02.769467,108,5.168220416666667,S18,Response_Inhibition
RIGHT,550.0000011,False,,,,RIGHT,489.2804999999498,2019-12-13 12:54:03.327443,2019-12-13 12:54:04.025346,109,5.168220416666667,S18,Response_Inhibition
LEFT,1016.6666687000001,True,233.3333338,,,LEFT,451.0720337999271,2019-12-13 12:54:05.051118,2019-12-13 12:54:05.712827,110,5.168220416666667,S18,Response_Inhibition
LEFT,1150.0000023,False,,,,LEFT,498.2789999999113,2019-12-13 12:54:06.871730,2019-12-13 12:54:07.578211,111,5.168220416666667,S18,Response_Inhibition
RIGHT,583.3333345,True,100.0000002,,,Time_Max_Exceeded,1500.0471002000515,2019-12-13 12:54:08.170120,2019-12-13 12:54:09.674185,112,5.168220416666667,S18,Response_Inhibition
RIGHT,1300.0000026,True,0.0,,,Time_Max_Exceeded,1500.0602000000072,2019-12-13 12:54:10.984048,2019-12-13 12:54:12.483286,113,5.168220416666667,S18,Response_Inhibition
LEFT,1316.6666693,True,233.3333338,,,LEFT,372.48043379994556,2019-12-13 12:54:13.809760,2019-12-13 12:54:14.393242,114,5.168220416666667,S18,Response_Inhibition
RIGHT,633.3333346000001,True,66.6666668,,,Time_Max_Exceeded,1500.0500668000252,2019-12-13 12:54:15.035299,2019-12-13 12:54:16.538415,115,5.168220416666667,S18,Response_Inhibition
LEFT,1366.6666694,False,,,,LEFT,407.1058000000676,2019-12-13 12:54:17.914499,2019-12-13 12:54:18.528564,116,5.168220416666667,S18,Response_Inhibition
LEFT,683.3333347,False,,,,LEFT,404.70329999993737,2019-12-13 12:54:19.220191,2019-12-13 12:54:19.832969,117,5.168220416666667,S18,Response_Inhibition
LEFT,1133.3333356,True,266.6666672,,,LEFT,414.0157672000422,2019-12-13 12:54:20.976022,2019-12-13 12:54:21.601018,118,5.168220416666667,S18,Response_Inhibition
RIGHT,1216.6666691,False,,,,RIGHT,566.3121000000046,2019-12-13 12:54:22.826800,2019-12-13 12:54:23.600731,119,5.168220416666667,S18,Response_Inhibition
LEFT,766.6666682,False,,,,LEFT,544.8053000000073,2019-12-13 12:54:24.376893,2019-12-13 12:54:25.129924,120,5.168220416666667,S18,Response_Inhibition
RIGHT,933.3333352,False,,,,RIGHT,425.33400000002075,2019-12-13 12:54:26.071479,2019-12-13 12:54:26.704990,121,5.168220416666667,S18,Response_Inhibition
LEFT,1000.000002,False,,,,LEFT,391.0479999999552,2019-12-13 12:54:27.713783,2019-12-13 12:54:28.312669,122,5.168220416666667,S18,Response_Inhibition
LEFT,1450.0000029,True,150.0000003,,,LEFT,402.5478003000021,2019-12-13 12:54:29.771421,2019-12-13 12:54:30.384828,123,5.168220416666667,S18,Response_Inhibition
LEFT,1100.0000022,False,,,,LEFT,395.66790000003493,2019-12-13 12:54:31.493507,2019-12-13 12:54:32.096924,124,5.168220416666667,S18,Response_Inhibition
LEFT,866.6666684,True,250.0000005,,,LEFT,408.90250049995376,2019-12-13 12:54:32.973135,2019-12-13 12:54:33.593027,125,5.168220416666667,S18,Response_Inhibition
RIGHT,1266.6666692000001,False,,,,RIGHT,541.06790000003,2019-12-13 12:54:34.868845,2019-12-13 12:54:35.617428,126,5.168220416666667,S18,Response_Inhibition
RIGHT,683.3333347,True,133.3333336,,,Time_Max_Exceeded,1500.0734336000155,2019-12-13 12:54:36.309588,2019-12-13 12:54:37.812700,127,5.168220416666667,S18,Response_Inhibition
LEFT,1316.6666693,False,,,,LEFT,382.33290000005127,2019-12-13 12:54:39.139296,2019-12-13 12:54:39.730276,128,5.168220416666667,S18,Response_Inhibition
RIGHT,1383.3333361,False,,,,RIGHT,534.3835999999555,2019-12-13 12:54:41.122626,2019-12-13 12:54:41.865012,129,5.168220416666667,S18,Response_Inhibition
LEFT,600.0000012,False,,,,LEFT,511.32940000002236,2019-12-13 12:54:42.473405,2019-12-13 12:54:43.193122,130,5.168220416666667,S18,Response_Inhibition
LEFT,1216.6666691,False,,,,LEFT,486.7249000000129,2019-12-13 12:54:44.418332,2019-12-13 12:54:45.113906,131,5.168220416666667,S18,Response_Inhibition
LEFT,733.3333348,True,133.3333336,,,Time_Max_Exceeded,1500.0594335999372,2019-12-13 12:54:45.856085,2019-12-13 12:54:47.358653,132,5.168220416666667,S18,Response_Inhibition
LEFT,1350.0000027,True,133.3333336,,,Time_Max_Exceeded,1500.0456335999038,2019-12-13 12:54:48.718029,2019-12-13 12:54:50.221156,133,5.168220416666667,S18,Response_Inhibition
RIGHT,1150.0000023,False,,,,RIGHT,460.52450000001954,2019-12-13 12:54:51.380955,2019-12-13 12:54:52.049257,134,5.168220416666667,S18,Response_Inhibition
LEFT,1483.3333363,False,,,,LEFT,419.3872000000738,2019-12-13 12:54:53.541881,2019-12-13 12:54:54.169914,135,5.168220416666667,S18,Response_Inhibition
RIGHT,1500.000003,False,,,,RIGHT,419.0011000000595,2019-12-13 12:54:55.677869,2019-12-13 12:54:56.304704,136,5.168220416666667,S18,Response_Inhibition
RIGHT,816.6666683,False,,,,RIGHT,575.3800000001092,2019-12-13 12:54:57.130017,2019-12-13 12:54:57.913729,137,5.168220416666667,S18,Response_Inhibition
RIGHT,1216.6666691,False,,,,RIGHT,541.076799999928,2019-12-13 12:54:59.140362,2019-12-13 12:54:59.889917,138,5.168220416666667,S18,Response_Inhibition
LEFT,900.0000018000001,False,,,,LEFT,506.68899999993755,2019-12-13 12:55:00.798141,2019-12-13 12:55:01.513996,139,5.168220416666667,S18,Response_Inhibition
LEFT,716.6666681,False,,,,LEFT,393.84719999998197,2019-12-13 12:55:02.239529,2019-12-13 12:55:02.840757,140,5.168220416666667,S18,Response_Inhibition
RIGHT,1166.666669,True,266.6666672,,,RIGHT,453.3086672000062,2019-12-13 12:55:04.017126,2019-12-13 12:55:04.680818,141,5.168220416666667,S18,Response_Inhibition
LEFT,1466.6666696,False,,,,LEFT,396.9865999999911,2019-12-13 12:55:06.156149,2019-12-13 12:55:06.761069,142,5.168220416666667,S18,Response_Inhibition
LEFT,650.0000013,False,,,,LEFT,460.4114999999638,2019-12-13 12:55:07.420879,2019-12-13 12:55:08.088630,143,5.168220416666667,S18,Response_Inhibition
RIGHT,1000.000002,False,,,,RIGHT,592.0180000000528,2019-12-13 12:55:09.096978,2019-12-13 12:55:09.896926,144,5.168220416666667,S18,Response_Inhibition
LEFT,666.6666680000001,False,,,,LEFT,380.90390000002117,2019-12-13 12:55:10.572480,2019-12-13 12:55:11.160652,145,5.168220416666667,S18,Response_Inhibition
LEFT,683.3333347,True,116.6666669,,,LEFT,384.9893668999988,2019-12-13 12:55:11.852839,2019-12-13 12:55:12.449114,146,5.168220416666667,S18,Response_Inhibition
RIGHT,900.0000018000001,False,,,,RIGHT,451.19450000004235,2019-12-13 12:55:13.358195,2019-12-13 12:55:14.016711,147,5.168220416666667,S18,Response_Inhibition
LEFT,933.3333352,True,200.0000004,,,LEFT,343.080800400007,2019-12-13 12:55:14.959212,2019-12-13 12:55:15.513788,148,5.168220416666667,S18,Response_Inhibition
RIGHT,600.0000012,False,,,,RIGHT,590.6972000000223,2019-12-13 12:55:16.122162,2019-12-13 12:55:16.920563,149,5.168220416666667,S18,Response_Inhibition
RIGHT,1250.0000025,True,150.0000003,,,RIGHT,402.983000299972,2019-12-13 12:55:18.179102,2019-12-13 12:55:18.793920,150,5.168220416666667,S18,Response_Inhibition
LEFT,1333.3333360000001,False,,,,LEFT,401.14919999996346,2019-12-13 12:55:20.136416,2019-12-13 12:55:20.744922,151,5.168220416666667,S18,Response_Inhibition
LEFT,533.3333344,False,,,,LEFT,562.37950000002,2019-12-13 12:55:21.287225,2019-12-13 12:55:22.058420,152,5.168220416666667,S18,Response_Inhibition
RIGHT,1433.3333362,False,,,,RIGHT,508.93970000004174,2019-12-13 12:55:23.500320,2019-12-13 12:55:24.217253,153,5.168220416666667,S18,Response_Inhibition
LEFT,633.3333346000001,False,,,,LEFT,461.65130000008503,2019-12-13 12:55:24.859536,2019-12-13 12:55:25.530443,154,5.168220416666667,S18,Response_Inhibition
RIGHT,700.0000014,False,,,,RIGHT,466.0278000000062,2019-12-13 12:55:26.239020,2019-12-13 12:55:26.913216,155,5.168220416666667,S18,Response_Inhibition
LEFT,1366.6666694,False,,,,LEFT,567.3398000000134,2019-12-13 12:55:28.290638,2019-12-13 12:55:29.066022,156,5.168220416666667,S18,Response_Inhibition
RIGHT,966.6666686,False,,,,RIGHT,415.8311999999569,2019-12-13 12:55:30.041528,2019-12-13 12:55:30.666977,157,5.168220416666667,S18,Response_Inhibition
LEFT,1466.6666696,True,50.0000001,,,Time_Max_Exceeded,1500.0515000999724,2019-12-13 12:55:32.142219,2019-12-13 12:55:33.645086,158,5.168220416666667,S18,Response_Inhibition
RIGHT,500.000001,False,,,,RIGHT,374.41739999997026,2019-12-13 12:55:34.154866,2019-12-13 12:55:34.738377,159,5.168220416666667,S18,Response_Inhibition
LEFT,1416.6666695000001,False,,,,LEFT,389.55889999999727,2019-12-13 12:55:36.163721,2019-12-13 12:55:36.761322,160,5.168220416666667,S18,Response_Inhibition
