Stimulus_Side,ITI,Stop_Signal,Stop_Signal_RT,Previous_Response,Previous_RT,Response,RT,Trial_Time_Onset,Trial_Time_End,Trial_Order,Duration,Participant,Task
LEFT,966.6666686,False,,,,LEFT,294.1962809999836,2019-11-22 11:27:01.798374,2019-11-22 11:27:02.299828,1,5.7524296999999995,S14,Response_Inhibition
RIGHT,833.333335,False,,,,RIGHT,271.44544700001916,2019-11-22 11:27:03.139368,2019-11-22 11:27:03.618233,2,5.7524296999999995,S14,Response_Inhibition
RIGHT,633.3333346000001,False,,,,RIGHT,300.6347109999865,2019-11-22 11:27:04.260950,2019-11-22 11:27:04.769313,3,5.7524296999999995,S14,Response_Inhibition
RIGHT,1050.0000021,False,,,,RIGHT,301.9619600000283,2019-11-22 11:27:05.828319,2019-11-22 11:27:06.337426,4,5.7524296999999995,S14,Response_Inhibition
RIGHT,533.3333344,True,200.0000004,,,RIGHT,341.7512364000046,2019-11-22 11:27:06.879975,2019-11-22 11:27:07.431606,5,5.7524296999999995,S14,Response_Inhibition
LEFT,516.6666677000001,True,133.3333336,,,LEFT,336.2311385999637,2019-11-22 11:27:07.955576,2019-11-22 11:27:08.501710,6,5.7524296999999995,S14,Response_Inhibition
LEFT,1166.666669,True,33.3333334,,,Time_Max_Exceeded,1500.0600623999585,2019-11-22 11:27:09.675286,2019-11-22 11:27:11.178596,7,5.7524296999999995,S14,Response_Inhibition
LEFT,500.000001,True,216.6666671,,,LEFT,489.92103709996104,2019-11-22 11:27:11.685244,2019-11-22 11:27:12.385024,8,5.7524296999999995,S14,Response_Inhibition
RIGHT,1150.0000023,False,,,,RIGHT,290.4303339999501,2019-11-22 11:27:13.544104,2019-11-22 11:27:14.040720,9,5.7524296999999995,S14,Response_Inhibition
LEFT,1000.000002,False,,,,LEFT,318.5892509999917,2019-11-22 11:27:15.046866,2019-11-22 11:27:15.572359,10,5.7524296999999995,S14,Response_Inhibition
RIGHT,516.6666677000001,False,,,,RIGHT,295.72628500000064,2019-11-22 11:27:16.098968,2019-11-22 11:27:16.601507,11,5.7524296999999995,S14,Response_Inhibition
RIGHT,1316.6666693,False,,,,LEFT,277.40537500000073,2019-11-22 11:27:17.927155,2019-11-22 11:27:18.410496,12,5.7524296999999995,S14,Response_Inhibition
RIGHT,1100.0000022,False,,,,RIGHT,300.3293440000334,2019-11-22 11:27:19.518715,2019-11-22 11:27:20.024974,13,5.7524296999999995,S14,Response_Inhibition
LEFT,850.0000017,True,83.33333350000001,,,LEFT,270.7417415000102,2019-11-22 11:27:20.884941,2019-11-22 11:27:21.365751,14,5.7524296999999995,S14,Response_Inhibition
LEFT,1466.6666696,False,,,,LEFT,369.20350899998766,2019-11-22 11:27:22.841700,2019-11-22 11:27:23.416537,15,5.7524296999999995,S14,Response_Inhibition
LEFT,1300.0000026,False,,,,LEFT,331.469989000027,2019-11-22 11:27:24.724056,2019-11-22 11:27:25.263204,16,5.7524296999999995,S14,Response_Inhibition
LEFT,900.0000018000001,False,,,,LEFT,265.1367800000344,2019-11-22 11:27:26.171496,2019-11-22 11:27:26.643585,17,5.7524296999999995,S14,Response_Inhibition
RIGHT,1366.6666694,False,,,,RIGHT,290.14259799998854,2019-11-22 11:27:28.018605,2019-11-22 11:27:28.516273,18,5.7524296999999995,S14,Response_Inhibition
LEFT,850.0000017,True,116.6666669,,,LEFT,298.28440190003164,2019-11-22 11:27:29.374487,2019-11-22 11:27:29.884136,19,5.7524296999999995,S14,Response_Inhibition
LEFT,1350.0000027,False,,,,LEFT,315.77748500001235,2019-11-22 11:27:31.241551,2019-11-22 11:27:31.766264,20,5.7524296999999995,S14,Response_Inhibition
LEFT,1183.3333357000001,False,,,,LEFT,257.4617230000058,2019-11-22 11:27:32.958862,2019-11-22 11:27:33.423556,21,5.7524296999999995,S14,Response_Inhibition
LEFT,700.0000014,True,166.66666700000002,,,LEFT,363.68035500002685,2019-11-22 11:27:34.133860,2019-11-22 11:27:34.707855,22,5.7524296999999995,S14,Response_Inhibition
LEFT,1150.0000023,False,,,,LEFT,339.10026299997753,2019-11-22 11:27:35.866788,2019-11-22 11:27:36.413045,23,5.7524296999999995,S14,Response_Inhibition
LEFT,866.6666684,False,,,,LEFT,310.222006999993,2019-11-22 11:27:37.287640,2019-11-22 11:27:37.804500,24,5.7524296999999995,S14,Response_Inhibition
RIGHT,1350.0000027,False,,,,RIGHT,419.13298600002236,2019-11-22 11:27:39.165099,2019-11-22 11:27:39.790494,25,5.7524296999999995,S14,Response_Inhibition
RIGHT,766.6666682,True,116.6666669,,,RIGHT,409.0131198999933,2019-11-22 11:27:40.566970,2019-11-22 11:27:41.186179,26,5.7524296999999995,S14,Response_Inhibition
LEFT,1366.6666694,True,216.6666671,,,LEFT,333.31828810001684,2019-11-22 11:27:42.560771,2019-11-22 11:27:43.106856,27,5.7524296999999995,S14,Response_Inhibition
RIGHT,1100.0000022,False,,,,RIGHT,281.316247999996,2019-11-22 11:27:44.213027,2019-11-22 11:27:44.700939,28,5.7524296999999995,S14,Response_Inhibition
LEFT,600.0000012,False,,,,LEFT,240.09428899995555,2019-11-22 11:27:45.309385,2019-11-22 11:27:45.755985,29,5.7524296999999995,S14,Response_Inhibition
LEFT,916.6666685,True,66.6666668,,,LEFT,250.9396067999712,2019-11-22 11:27:46.681718,2019-11-22 11:27:47.142255,30,5.7524296999999995,S14,Response_Inhibition
RIGHT,1466.6666696,False,,,,RIGHT,268.3755650000421,2019-11-22 11:27:48.615148,2019-11-22 11:27:49.091395,31,5.7524296999999995,S14,Response_Inhibition
LEFT,883.3333351,False,,,,LEFT,387.49444600000515,2019-11-22 11:27:49.984155,2019-11-22 11:27:50.578536,32,5.7524296999999995,S14,Response_Inhibition
LEFT,833.333335,False,,,,LEFT,662.1444740000015,2019-11-22 11:27:51.421513,2019-11-22 11:27:52.290129,33,5.7524296999999995,S14,Response_Inhibition
LEFT,716.6666681,False,,,,LEFT,390.6454300000064,2019-11-22 11:27:53.013196,2019-11-22 11:27:53.611303,34,5.7524296999999995,S14,Response_Inhibition
LEFT,633.3333346000001,True,50.0000001,,,Time_Max_Exceeded,1500.0620601000503,2019-11-22 11:27:54.251613,2019-11-22 11:27:55.754960,35,5.7524296999999995,S14,Response_Inhibition
LEFT,1100.0000022,False,,,,LEFT,350.1442200000042,2019-11-22 11:27:56.861140,2019-11-22 11:27:57.419410,36,5.7524296999999995,S14,Response_Inhibition
RIGHT,816.6666683,True,183.3333337,,,RIGHT,386.2843827000348,2019-11-22 11:27:58.244490,2019-11-22 11:27:58.840492,37,5.7524296999999995,S14,Response_Inhibition
RIGHT,966.6666686,False,,,,RIGHT,528.0753469999695,2019-11-22 11:27:59.814127,2019-11-22 11:28:00.548800,38,5.7524296999999995,S14,Response_Inhibition
LEFT,983.3333353,True,283.3333339,,,LEFT,450.9888549000288,2019-11-22 11:28:01.537522,2019-11-22 11:28:02.198597,39,5.7524296999999995,S14,Response_Inhibition
RIGHT,933.3333352,False,,,,RIGHT,911.38669999998,2019-11-22 11:28:03.140770,2019-11-22 11:28:04.258676,40,5.7524296999999995,S14,Response_Inhibition
RIGHT,1233.3333358,True,216.6666671,,,Time_Max_Exceeded,1500.0845100999952,2019-11-22 11:28:05.500266,2019-11-22 11:28:07.004005,41,5.7524296999999995,S14,Response_Inhibition
RIGHT,1300.0000026,False,,,,RIGHT,407.17116700000133,2019-11-22 11:28:08.311047,2019-11-22 11:28:08.924614,42,5.7524296999999995,S14,Response_Inhibition
RIGHT,1416.6666695000001,True,233.3333338,,,RIGHT,457.3708668000006,2019-11-22 11:28:10.350580,2019-11-22 11:28:11.017186,43,5.7524296999999995,S14,Response_Inhibition
LEFT,583.3333345,True,83.33333350000001,,,Time_Max_Exceeded,1500.0628834999568,2019-11-22 11:28:11.606611,2019-11-22 11:28:13.109902,44,5.7524296999999995,S14,Response_Inhibition
RIGHT,683.3333347,False,,,,RIGHT,399.6265789999711,2019-11-22 11:28:13.801052,2019-11-22 11:28:14.407291,45,5.7524296999999995,S14,Response_Inhibition
RIGHT,950.0000019,False,,,,RIGHT,419.5367319999832,2019-11-22 11:28:15.365071,2019-11-22 11:28:15.991727,46,5.7524296999999995,S14,Response_Inhibition
RIGHT,1000.000002,False,,,,RIGHT,405.6651410000427,2019-11-22 11:28:16.998677,2019-11-22 11:28:17.610873,47,5.7524296999999995,S14,Response_Inhibition
RIGHT,900.0000018000001,True,0.0,,,Time_Max_Exceeded,1500.1110750000066,2019-11-22 11:28:18.520036,2019-11-22 11:28:20.020148,48,5.7524296999999995,S14,Response_Inhibition
RIGHT,883.3333351,False,,,,RIGHT,435.6382720000056,2019-11-22 11:28:20.910201,2019-11-22 11:28:21.553252,49,5.7524296999999995,S14,Response_Inhibition
RIGHT,1450.0000029,True,266.6666672,,,RIGHT,474.2595642000405,2019-11-22 11:28:23.012856,2019-11-22 11:28:23.698363,50,5.7524296999999995,S14,Response_Inhibition
RIGHT,600.0000012,False,,,,RIGHT,726.207536000004,2019-11-22 11:28:24.305325,2019-11-22 11:28:25.237535,51,5.7524296999999995,S14,Response_Inhibition
RIGHT,1033.3333354000001,False,,,,RIGHT,909.3186040000205,2019-11-22 11:28:26.280543,2019-11-22 11:28:27.396638,52,5.7524296999999995,S14,Response_Inhibition
LEFT,1316.6666693,False,,,,LEFT,652.393209999957,2019-11-22 11:28:28.721246,2019-11-22 11:28:29.581445,53,5.7524296999999995,S14,Response_Inhibition
LEFT,1266.6666692000001,False,,,,LEFT,821.927474000006,2019-11-22 11:28:30.853518,2019-11-22 11:28:31.882394,54,5.7524296999999995,S14,Response_Inhibition
LEFT,533.3333344,False,,,,LEFT,759.5104269999524,2019-11-22 11:28:32.424943,2019-11-22 11:28:33.391776,55,5.7524296999999995,S14,Response_Inhibition
LEFT,750.0000015,False,,,,LEFT,456.8583969999622,2019-11-22 11:28:34.148683,2019-11-22 11:28:34.812340,56,5.7524296999999995,S14,Response_Inhibition
RIGHT,1500.000003,False,,,,RIGHT,780.6173619999868,2019-11-22 11:28:36.321947,2019-11-22 11:28:37.308730,57,5.7524296999999995,S14,Response_Inhibition
LEFT,1383.3333361,True,333.33333400000004,,,Time_Max_Exceeded,1500.0889780000339,2019-11-22 11:28:38.698694,2019-11-22 11:28:40.202005,58,5.7524296999999995,S14,Response_Inhibition
RIGHT,1283.3333359,True,266.6666672,,,RIGHT,384.3807232000112,2019-11-22 11:28:41.491629,2019-11-22 11:28:42.087017,59,5.7524296999999995,S14,Response_Inhibition
LEFT,1016.6666687000001,False,,,,LEFT,879.4389160000264,2019-11-22 11:28:43.113306,2019-11-22 11:28:44.199089,60,5.7524296999999995,S14,Response_Inhibition
LEFT,633.3333346000001,False,,,,LEFT,747.7890929999944,2019-11-22 11:28:44.841368,2019-11-22 11:28:45.795625,61,5.7524296999999995,S14,Response_Inhibition
LEFT,733.3333348,False,,,,LEFT,853.0903340000009,2019-11-22 11:28:46.540138,2019-11-22 11:28:47.599439,62,5.7524296999999995,S14,Response_Inhibition
RIGHT,1066.6666688,True,166.66666700000002,,,Time_Max_Exceeded,1500.0679380000138,2019-11-22 11:28:48.675365,2019-11-22 11:28:50.178074,63,5.7524296999999995,S14,Response_Inhibition
LEFT,550.0000011,False,,,,LEFT,907.9973479999808,2019-11-22 11:28:50.735164,2019-11-22 11:28:51.850147,64,5.7524296999999995,S14,Response_Inhibition
LEFT,816.6666683,False,,,,LEFT,1022.7339080000206,2019-11-22 11:28:52.676529,2019-11-22 11:28:53.905590,65,5.7524296999999995,S14,Response_Inhibition
RIGHT,716.6666681,True,316.66666730000003,,,Time_Max_Exceeded,1500.072169299971,2019-11-22 11:28:54.631407,2019-11-22 11:28:56.134695,66,5.7524296999999995,S14,Response_Inhibition
RIGHT,1483.3333363,False,,,,RIGHT,854.9359300000106,2019-11-22 11:28:57.624227,2019-11-22 11:28:58.687026,67,5.7524296999999995,S14,Response_Inhibition
RIGHT,500.000001,False,,,,RIGHT,840.5170770000154,2019-11-22 11:28:59.196663,2019-11-22 11:29:00.243887,68,5.7524296999999995,S14,Response_Inhibition
LEFT,1266.6666692000001,True,300.0000006,,,Time_Max_Exceeded,1500.2789205999597,2019-11-22 11:29:01.519093,2019-11-22 11:29:03.022793,69,5.7524296999999995,S14,Response_Inhibition
RIGHT,683.3333347,False,,,,RIGHT,760.4349880000427,2019-11-22 11:29:03.713130,2019-11-22 11:29:04.680957,70,5.7524296999999995,S14,Response_Inhibition
RIGHT,783.3333349000001,False,,,,RIGHT,1022.7656440000032,2019-11-22 11:29:05.473928,2019-11-22 11:29:06.702964,71,5.7524296999999995,S14,Response_Inhibition
RIGHT,583.3333345,True,183.3333337,,,Time_Max_Exceeded,1500.0657047000004,2019-11-22 11:29:07.292526,2019-11-22 11:29:08.795674,72,5.7524296999999995,S14,Response_Inhibition
RIGHT,550.0000011,False,,,,RIGHT,904.2761840000253,2019-11-22 11:29:09.351964,2019-11-22 11:29:10.463311,73,5.7524296999999995,S14,Response_Inhibition
LEFT,1233.3333358,False,,,,LEFT,611.0344360000113,2019-11-22 11:29:11.703502,2019-11-22 11:29:12.521585,74,5.7524296999999995,S14,Response_Inhibition
RIGHT,1416.6666695000001,False,,,,RIGHT,746.8969720000018,2019-11-22 11:29:13.944854,2019-11-22 11:29:14.898603,75,5.7524296999999995,S14,Response_Inhibition
RIGHT,1083.3333355,False,,,,RIGHT,787.4715260000471,2019-11-22 11:29:15.988689,2019-11-22 11:29:16.982606,76,5.7524296999999995,S14,Response_Inhibition
LEFT,1283.3333359,False,,,,LEFT,634.0715950000231,2019-11-22 11:29:18.272616,2019-11-22 11:29:19.116679,77,5.7524296999999995,S14,Response_Inhibition
LEFT,533.3333344,False,,,,LEFT,759.7695999999701,2019-11-22 11:29:19.660171,2019-11-22 11:29:20.625757,78,5.7524296999999995,S14,Response_Inhibition
RIGHT,850.0000017,False,,,,RIGHT,768.1516540000075,2019-11-22 11:29:21.486092,2019-11-22 11:29:22.460981,79,5.7524296999999995,S14,Response_Inhibition
LEFT,666.6666680000001,False,,,,LEFT,697.3571379999726,2019-11-22 11:29:23.133927,2019-11-22 11:29:24.038947,80,5.7524296999999995,S14,Response_Inhibition
LEFT,616.6666679,False,,,,LEFT,707.346417999986,2019-11-22 11:29:24.664673,2019-11-22 11:29:25.579156,81,5.7524296999999995,S14,Response_Inhibition
RIGHT,1000.000002,True,83.33333350000001,,,Time_Max_Exceeded,1500.0614725000426,2019-11-22 11:29:26.588295,2019-11-22 11:29:28.092434,82,5.7524296999999995,S14,Response_Inhibition
LEFT,1050.0000021,False,,,,LEFT,914.5997449999754,2019-11-22 11:29:29.149401,2019-11-22 11:29:30.270683,83,5.7524296999999995,S14,Response_Inhibition
RIGHT,533.3333344,False,,,,RIGHT,985.1227460000018,2019-11-22 11:29:30.810176,2019-11-22 11:29:32.001800,84,5.7524296999999995,S14,Response_Inhibition
RIGHT,1433.3333362,False,,,,RIGHT,723.4680560000015,2019-11-22 11:29:33.443439,2019-11-22 11:29:34.374504,85,5.7524296999999995,S14,Response_Inhibition
LEFT,1483.3333363,True,250.0000005,,,Time_Max_Exceeded,1500.0666444999576,2019-11-22 11:29:35.866792,2019-11-22 11:29:37.369118,86,5.7524296999999995,S14,Response_Inhibition
RIGHT,1400.0000028,True,200.0000004,,,Time_Max_Exceeded,1500.0659394000352,2019-11-22 11:29:38.776800,2019-11-22 11:29:40.279727,87,5.7524296999999995,S14,Response_Inhibition
LEFT,1050.0000021,False,,,,LEFT,798.7062490000199,2019-11-22 11:29:41.337595,2019-11-22 11:29:42.342727,88,5.7524296999999995,S14,Response_Inhibition
RIGHT,1216.6666691,False,,,,RIGHT,745.4452489999994,2019-11-22 11:29:43.566074,2019-11-22 11:29:44.518065,89,5.7524296999999995,S14,Response_Inhibition
RIGHT,583.3333345,False,,,,RIGHT,1043.8041710000334,2019-11-22 11:29:45.107496,2019-11-22 11:29:46.357745,90,5.7524296999999995,S14,Response_Inhibition
RIGHT,900.0000018000001,False,,,,RIGHT,1050.5116470000075,2019-11-22 11:29:47.266469,2019-11-22 11:29:48.524462,91,5.7524296999999995,S14,Response_Inhibition
RIGHT,1333.3333360000001,True,300.0000006,,,Time_Max_Exceeded,1500.0606506000117,2019-11-22 11:29:49.867406,2019-11-22 11:29:51.370758,92,5.7524296999999995,S14,Response_Inhibition
RIGHT,1266.6666692000001,False,,,,RIGHT,902.180229999999,2019-11-22 11:29:52.643755,2019-11-22 11:29:53.752861,93,5.7524296999999995,S14,Response_Inhibition
LEFT,800.0000016,True,66.6666668,,,Time_Max_Exceeded,1500.0714637999802,2019-11-22 11:29:54.559230,2019-11-22 11:29:56.063094,94,5.7524296999999995,S14,Response_Inhibition
LEFT,1133.3333356,False,,,,LEFT,891.855258000021,2019-11-22 11:29:57.207007,2019-11-22 11:29:58.306189,95,5.7524296999999995,S14,Response_Inhibition
LEFT,1333.3333360000001,False,,,,LEFT,976.8722179999259,2019-11-22 11:29:59.648857,2019-11-22 11:30:00.832395,96,5.7524296999999995,S14,Response_Inhibition
RIGHT,1016.6666687000001,False,,,,RIGHT,733.6953530000301,2019-11-22 11:30:01.858833,2019-11-22 11:30:02.799377,97,5.7524296999999995,S14,Response_Inhibition
LEFT,1433.3333362,True,133.3333336,,,Time_Max_Exceeded,1500.061825599993,2019-11-22 11:30:04.242245,2019-11-22 11:30:05.745595,98,5.7524296999999995,S14,Response_Inhibition
LEFT,1400.0000028,False,,,,LEFT,703.8354119999894,2019-11-22 11:30:07.152753,2019-11-22 11:30:08.064020,99,5.7524296999999995,S14,Response_Inhibition
RIGHT,1216.6666691,False,,,,RIGHT,741.983962000063,2019-11-22 11:30:09.289809,2019-11-22 11:30:10.238416,100,5.7524296999999995,S14,Response_Inhibition
LEFT,1450.0000029,False,,,,LEFT,764.8130769999852,2019-11-22 11:30:11.697057,2019-11-22 11:30:12.668867,101,5.7524296999999995,S14,Response_Inhibition
LEFT,1100.0000022,True,100.0000002,,,Time_Max_Exceeded,1500.065234200067,2019-11-22 11:30:13.778747,2019-11-22 11:30:15.281452,102,5.7524296999999995,S14,Response_Inhibition
RIGHT,1050.0000021,True,283.3333339,,,Time_Max_Exceeded,1500.0678198999503,2019-11-22 11:30:16.338624,2019-11-22 11:30:17.842042,103,5.7524296999999995,S14,Response_Inhibition
LEFT,783.3333349000001,False,,,,LEFT,771.5896670000575,2019-11-22 11:30:18.631511,2019-11-22 11:30:19.611212,104,5.7524296999999995,S14,Response_Inhibition
RIGHT,1150.0000023,False,,,,RIGHT,1014.0084060000163,2019-11-22 11:30:20.770151,2019-11-22 11:30:21.990470,105,5.7524296999999995,S14,Response_Inhibition
LEFT,783.3333349000001,False,,,,LEFT,886.1527389999537,2019-11-22 11:30:22.786354,2019-11-22 11:30:23.878486,106,5.7524296999999995,S14,Response_Inhibition
RIGHT,666.6666680000001,False,,,,RIGHT,764.0401419999989,2019-11-22 11:30:24.553934,2019-11-22 11:30:25.524834,107,5.7524296999999995,S14,Response_Inhibition
RIGHT,700.0000014,False,,,,RIGHT,835.4982829999926,2019-11-22 11:30:26.230982,2019-11-22 11:30:27.273787,108,5.7524296999999995,S14,Response_Inhibition
LEFT,1366.6666694,False,,,,LEFT,762.5422249999474,2019-11-22 11:30:28.648574,2019-11-22 11:30:29.619252,109,5.7524296999999995,S14,Response_Inhibition
LEFT,1083.3333355,False,,,,LEFT,557.839023999918,2019-11-22 11:30:30.708938,2019-11-22 11:30:31.473504,110,5.7524296999999995,S14,Response_Inhibition
LEFT,1033.3333354000001,False,,,,LEFT,689.433484999995,2019-11-22 11:30:32.515428,2019-11-22 11:30:33.411095,111,5.7524296999999995,S14,Response_Inhibition
RIGHT,1183.3333357000001,False,,,,RIGHT,651.7405159999043,2019-11-22 11:30:34.602917,2019-11-22 11:30:35.462112,112,5.7524296999999995,S14,Response_Inhibition
LEFT,1066.6666688,True,316.66666730000003,,,Time_Max_Exceeded,1500.0637073000453,2019-11-22 11:30:36.534938,2019-11-22 11:30:38.037828,113,5.7524296999999995,S14,Response_Inhibition
RIGHT,1250.0000025,False,,,,RIGHT,627.1737060000078,2019-11-22 11:30:39.293940,2019-11-22 11:30:40.129011,114,5.7524296999999995,S14,Response_Inhibition
LEFT,1316.6666693,True,116.6666669,,,Time_Max_Exceeded,1500.0679379000253,2019-11-22 11:30:41.454939,2019-11-22 11:30:42.957291,115,5.7524296999999995,S14,Response_Inhibition
LEFT,1216.6666691,False,,,,LEFT,871.6993310000589,2019-11-22 11:30:44.181441,2019-11-22 11:30:45.260367,116,5.7524296999999995,S14,Response_Inhibition
RIGHT,1116.6666689,True,33.3333334,311,-1088.142,Time_Max_Exceeded,1500.0554783999487,2019-11-22 11:30:46.384486,2019-11-22 11:30:47.887291,117,5.7524296999999995,S14,Response_Inhibition
LEFT,733.3333348,True,50.0000001,,,Time_Max_Exceeded,1500.0543031000018,2019-11-22 11:30:48.626322,2019-11-22 11:30:50.128793,118,5.7524296999999995,S14,Response_Inhibition
RIGHT,800.0000016,False,,,,Time_Max_Exceeded,1500.052539999956,2019-11-22 11:30:50.934347,2019-11-22 11:30:52.434538,119,5.7524296999999995,S14,Response_Inhibition
RIGHT,633.3333346000001,False,,,,Time_Max_Exceeded,1500.0528920000988,2019-11-22 11:30:53.073832,2019-11-22 11:30:54.573776,120,5.7524296999999995,S14,Response_Inhibition
RIGHT,733.3333348,False,,,,Time_Max_Exceeded,1500.0521870000512,2019-11-22 11:30:55.313402,2019-11-22 11:30:56.813116,121,5.7524296999999995,S14,Response_Inhibition
RIGHT,1133.3333356,False,,,,Time_Max_Exceeded,1500.0539500000514,2019-11-22 11:30:57.952165,2019-11-22 11:30:59.451994,122,5.7524296999999995,S14,Response_Inhibition
LEFT,933.3333352,True,16.6666667,,,Time_Max_Exceeded,1500.0570066999144,2019-11-22 11:31:00.391522,2019-11-22 11:31:01.894095,123,5.7524296999999995,S14,Response_Inhibition
RIGHT,783.3333349000001,False,,,,Time_Max_Exceeded,1500.0592399999277,2019-11-22 11:31:02.682785,2019-11-22 11:31:04.183020,124,5.7524296999999995,S14,Response_Inhibition
RIGHT,850.0000017,False,,,,Time_Max_Exceeded,1500.0557139999273,2019-11-22 11:31:05.038771,2019-11-22 11:31:06.539445,125,5.7524296999999995,S14,Response_Inhibition
LEFT,650.0000013,False,,,,Time_Max_Exceeded,1500.0585340000043,2019-11-22 11:31:07.195702,2019-11-22 11:31:08.695441,126,5.7524296999999995,S14,Response_Inhibition
RIGHT,1383.3333361,False,,,,RIGHT,997.2256109999762,2019-11-22 11:31:10.086241,2019-11-22 11:31:11.289772,127,5.7524296999999995,S14,Response_Inhibition
RIGHT,566.6666678,True,283.3333339,,,RIGHT,589.4011628999715,2019-11-22 11:31:11.867289,2019-11-22 11:31:12.665889,128,5.7524296999999995,S14,Response_Inhibition
LEFT,683.3333347,True,133.3333336,,,Time_Max_Exceeded,1500.0558316000584,2019-11-22 11:31:13.359037,2019-11-22 11:31:14.862231,129,5.7524296999999995,S14,Response_Inhibition
RIGHT,650.0000013,True,200.0000004,,,RIGHT,430.0489444000319,2019-11-22 11:31:15.519137,2019-11-22 11:31:16.159499,130,5.7524296999999995,S14,Response_Inhibition
LEFT,950.0000019,False,,,,LEFT,488.30899099993985,2019-11-22 11:31:17.119721,2019-11-22 11:31:17.814290,131,5.7524296999999995,S14,Response_Inhibition
RIGHT,1316.6666693,True,16.6666667,,,Time_Max_Exceeded,1500.057006700028,2019-11-22 11:31:19.140739,2019-11-22 11:31:20.644351,132,5.7524296999999995,S14,Response_Inhibition
RIGHT,1200.0000024,True,33.3333334,,,Time_Max_Exceeded,1500.0657043999208,2019-11-22 11:31:21.850381,2019-11-22 11:31:23.354037,133,5.7524296999999995,S14,Response_Inhibition
RIGHT,1466.6666696,False,,,,RIGHT,1238.0942479999248,2019-11-22 11:31:24.827125,2019-11-22 11:31:26.271115,134,5.7524296999999995,S14,Response_Inhibition
LEFT,1500.000003,False,,,,LEFT,1060.055219999981,2019-11-22 11:31:27.780409,2019-11-22 11:31:29.048377,135,5.7524296999999995,S14,Response_Inhibition
LEFT,766.6666682,False,,,,LEFT,1130.4523370000652,2019-11-22 11:31:29.824950,2019-11-22 11:31:31.163363,136,5.7524296999999995,S14,Response_Inhibition
RIGHT,916.6666685,True,150.0000003,,,Time_Max_Exceeded,1500.0546562999975,2019-11-22 11:31:32.090070,2019-11-22 11:31:33.593355,137,5.7524296999999995,S14,Response_Inhibition
RIGHT,866.6666684,True,250.0000005,,,Time_Max_Exceeded,1500.065234499976,2019-11-22 11:31:34.465983,2019-11-22 11:31:35.968625,138,5.7524296999999995,S14,Response_Inhibition
LEFT,1216.6666691,True,300.0000006,,,Time_Max_Exceeded,1500.056066600002,2019-11-22 11:31:37.192976,2019-11-22 11:31:38.695653,139,5.7524296999999995,S14,Response_Inhibition
RIGHT,1166.666669,True,250.0000005,,,Time_Max_Exceeded,1500.060298499994,2019-11-22 11:31:39.868721,2019-11-22 11:31:41.371576,140,5.7524296999999995,S14,Response_Inhibition
LEFT,1150.0000023,False,,,,LEFT,619.9256690000539,2019-11-22 11:31:42.527707,2019-11-22 11:31:43.355267,141,5.7524296999999995,S14,Response_Inhibition
LEFT,1116.6666689,True,166.66666700000002,,,Time_Max_Exceeded,1500.0598280000036,2019-11-22 11:31:44.477370,2019-11-22 11:31:45.980889,142,5.7524296999999995,S14,Response_Inhibition
LEFT,900.0000018000001,False,,,,LEFT,847.8173019999531,2019-11-22 11:31:46.887366,2019-11-22 11:31:47.942171,143,5.7524296999999995,S14,Response_Inhibition
RIGHT,616.6666679,True,100.0000002,,,Time_Max_Exceeded,1500.0553611999997,2019-11-22 11:31:48.568047,2019-11-22 11:31:50.071303,144,5.7524296999999995,S14,Response_Inhibition
LEFT,1416.6666695000001,False,,,,LEFT,548.4382600000117,2019-11-22 11:31:51.495297,2019-11-22 11:31:52.251144,145,5.7524296999999995,S14,Response_Inhibition
LEFT,950.0000019,False,,,,LEFT,423.0311640000082,2019-11-22 11:31:53.210542,2019-11-22 11:31:53.840443,146,5.7524296999999995,S14,Response_Inhibition
LEFT,566.6666678,False,,,,LEFT,853.4651649999887,2019-11-22 11:31:54.413857,2019-11-22 11:31:55.473571,147,5.7524296999999995,S14,Response_Inhibition
LEFT,1000.000002,True,0.0,,,Time_Max_Exceeded,1500.0624130000233,2019-11-22 11:31:56.483812,2019-11-22 11:31:57.983572,148,5.7524296999999995,S14,Response_Inhibition
LEFT,1200.0000024,False,,,,LEFT,598.4576540000717,2019-11-22 11:31:59.189996,2019-11-22 11:31:59.995101,149,5.7524296999999995,S14,Response_Inhibition
LEFT,1466.6666696,False,,,,LEFT,677.553826999997,2019-11-22 11:32:01.468231,2019-11-22 11:32:02.352449,150,5.7524296999999995,S14,Response_Inhibition
RIGHT,950.0000019,False,,,,RIGHT,1105.9405350000588,2019-11-22 11:32:03.308860,2019-11-22 11:32:04.621418,151,5.7524296999999995,S14,Response_Inhibition
LEFT,1416.6666695000001,False,,,,LEFT,509.3401130000075,2019-11-22 11:32:06.046233,2019-11-22 11:32:06.761887,152,5.7524296999999995,S14,Response_Inhibition
LEFT,683.3333347,False,,,,LEFT,685.5480020000186,2019-11-22 11:32:07.451107,2019-11-22 11:32:08.344160,153,5.7524296999999995,S14,Response_Inhibition
RIGHT,1266.6666692000001,False,,,,RIGHT,642.5689549998879,2019-11-22 11:32:09.616898,2019-11-22 11:32:10.465740,154,5.7524296999999995,S14,Response_Inhibition
RIGHT,750.0000015,True,50.0000001,,,Time_Max_Exceeded,1500.0669971000218,2019-11-22 11:32:11.222502,2019-11-22 11:32:12.725311,155,5.7524296999999995,S14,Response_Inhibition
LEFT,1250.0000025,True,150.0000003,,,Time_Max_Exceeded,1500.0532452999128,2019-11-22 11:32:13.981556,2019-11-22 11:32:15.484749,156,5.7524296999999995,S14,Response_Inhibition
RIGHT,733.3333348,False,,,,RIGHT,699.8325069999964,2019-11-22 11:32:16.224525,2019-11-22 11:32:17.130576,157,5.7524296999999995,S14,Response_Inhibition
LEFT,583.3333345,True,333.33333400000004,,,Time_Max_Exceeded,1500.0593580000132,2019-11-22 11:32:17.722885,2019-11-22 11:32:19.226298,158,5.7524296999999995,S14,Response_Inhibition
RIGHT,1366.6666694,False,,,,RIGHT,600.0056420000419,2019-11-22 11:32:20.599174,2019-11-22 11:32:21.405837,159,5.7524296999999995,S14,Response_Inhibition
RIGHT,983.3333353,True,233.3333338,,,RIGHT,484.4761648000383,2019-11-22 11:32:22.399191,2019-11-22 11:32:23.093919,160,5.7524296999999995,S14,Response_Inhibition
