Conflict,Stimulus_Side,ITI,Previous_Response,Previous_RT,Cue_Response,Cue_Response_RT,Response,RT,Trial_Time_Onset,Trial_Time_End,Trial_Order,Duration,Participant,Task
False,RIGHT,1266.6666692000001,,,,,RIGHT,427.19610000006014,2019-11-06 17:02:13.755276,2019-11-06 17:02:14.398631,1,5.176277766666667,S6,Conflict_Resolution
False,LEFT,1300.0000026,,,,,LEFT,493.05680000009033,2019-11-06 17:02:15.735546,2019-11-06 17:02:16.442422,2,5.176277766666667,S6,Conflict_Resolution
True,LEFT,1466.6666696,,,,,LEFT,697.714000000019,2019-11-06 17:02:17.955990,2019-11-06 17:02:18.874772,3,5.176277766666667,S6,Conflict_Resolution
False,LEFT,1266.6666692000001,,,,,LEFT,402.61199999997643,2019-11-06 17:02:20.178977,2019-11-06 17:02:20.798354,4,5.176277766666667,S6,Conflict_Resolution
True,LEFT,783.3333349000001,,,,,LEFT,676.4242000000422,2019-11-06 17:02:21.631504,2019-11-06 17:02:22.529883,5,5.176277766666667,S6,Conflict_Resolution
True,RIGHT,650.0000013,,,,,RIGHT,825.2392999999074,2019-11-06 17:02:23.209287,2019-11-06 17:02:24.255723,6,5.176277766666667,S6,Conflict_Resolution
True,LEFT,1050.0000021,,,,,LEFT,504.09290000004603,2019-11-06 17:02:25.354332,2019-11-06 17:02:26.079020,7,5.176277766666667,S6,Conflict_Resolution
False,LEFT,1466.6666696,,,,,LEFT,427.84419999998136,2019-11-06 17:02:27.588215,2019-11-06 17:02:28.238551,8,5.176277766666667,S6,Conflict_Resolution
False,RIGHT,533.3333344,LEFT,-427.163,,,RIGHT,452.9480999999578,2019-11-06 17:02:28.809023,2019-11-06 17:02:29.479800,9,5.176277766666667,S6,Conflict_Resolution
False,LEFT,1116.6666689,,,,,LEFT,447.9946999999811,2019-11-06 17:02:30.643222,2019-11-06 17:02:31.313358,10,5.176277766666667,S6,Conflict_Resolution
False,RIGHT,500.000001,,,,,RIGHT,434.09479999991163,2019-11-06 17:02:31.862405,2019-11-06 17:02:32.519916,11,5.176277766666667,S6,Conflict_Resolution
False,RIGHT,1150.0000023,,,,,RIGHT,401.0950000000548,2019-11-06 17:02:33.721258,2019-11-06 17:02:34.343458,12,5.176277766666667,S6,Conflict_Resolution
False,LEFT,1250.0000025,,,,,LEFT,417.7274999999554,2019-11-06 17:02:35.639918,2019-11-06 17:02:36.279632,13,5.176277766666667,S6,Conflict_Resolution
False,RIGHT,850.0000017,,,,,RIGHT,370.2701000000843,2019-11-06 17:02:37.174195,2019-11-06 17:02:37.759531,14,5.176277766666667,S6,Conflict_Resolution
False,LEFT,683.3333347,,,,,LEFT,400.75000000001637,2019-11-06 17:02:38.495362,2019-11-06 17:02:39.119192,15,5.176277766666667,S6,Conflict_Resolution
False,LEFT,616.6666679,,,,,LEFT,508.7772000000541,2019-11-06 17:02:39.775604,2019-11-06 17:02:40.507314,16,5.176277766666667,S6,Conflict_Resolution
True,LEFT,1116.6666689,,,,,LEFT,602.141999999958,2019-11-06 17:02:41.673203,2019-11-06 17:02:42.490936,17,5.176277766666667,S6,Conflict_Resolution
True,RIGHT,500.000001,,,,,RIGHT,647.6169999999684,2019-11-06 17:02:43.023664,2019-11-06 17:02:43.892826,18,5.176277766666667,S6,Conflict_Resolution
False,RIGHT,1033.3333354000001,,,,,RIGHT,592.2064000000091,2019-11-06 17:02:44.975646,2019-11-06 17:02:45.789359,19,5.176277766666667,S6,Conflict_Resolution
True,LEFT,666.6666680000001,,,,,LEFT,433.7340999999242,2019-11-06 17:02:46.485266,2019-11-06 17:02:47.141163,20,5.176277766666667,S6,Conflict_Resolution
True,RIGHT,1283.3333359,,,,,RIGHT,545.3851999999415,2019-11-06 17:02:48.463931,2019-11-06 17:02:49.228965,21,5.176277766666667,S6,Conflict_Resolution
False,RIGHT,1050.0000021,,,,,RIGHT,478.9074000000255,2019-11-06 17:02:50.329917,2019-11-06 17:02:51.031147,22,5.176277766666667,S6,Conflict_Resolution
False,RIGHT,1083.3333355,,,,,RIGHT,395.20279999999275,2019-11-06 17:02:52.151359,2019-11-06 17:02:52.766716,23,5.176277766666667,S6,Conflict_Resolution
True,LEFT,766.6666682,,,,,LEFT,517.6701999999977,2019-11-06 17:02:53.583463,2019-11-06 17:02:54.323991,24,5.176277766666667,S6,Conflict_Resolution
True,LEFT,1300.0000026,,,,,LEFT,576.8114999999625,2019-11-06 17:02:55.662338,2019-11-06 17:02:56.455282,25,5.176277766666667,S6,Conflict_Resolution
True,LEFT,1016.6666687000001,,,,,LEFT,559.3589000000065,2019-11-06 17:02:57.519411,2019-11-06 17:02:58.300745,26,5.176277766666667,S6,Conflict_Resolution
False,RIGHT,650.0000013,,,,,RIGHT,631.0070999999198,2019-11-06 17:02:59.004290,2019-11-06 17:02:59.856494,27,5.176277766666667,S6,Conflict_Resolution
True,RIGHT,633.3333346000001,,,,,RIGHT,458.91740000001846,2019-11-06 17:03:00.527444,2019-11-06 17:03:01.207206,28,5.176277766666667,S6,Conflict_Resolution
True,RIGHT,1183.3333357000001,,,,,RIGHT,500.32690000000457,2019-11-06 17:03:02.441439,2019-11-06 17:03:03.165353,29,5.176277766666667,S6,Conflict_Resolution
False,RIGHT,700.0000014,,,,,RIGHT,456.9035999999187,2019-11-06 17:03:03.916250,2019-11-06 17:03:04.596620,30,5.176277766666667,S6,Conflict_Resolution
True,RIGHT,533.3333344,,,,,RIGHT,478.5192999999026,2019-11-06 17:03:05.182226,2019-11-06 17:03:05.883292,31,5.176277766666667,S6,Conflict_Resolution
False,LEFT,733.3333348,,,,,LEFT,585.5176999999685,2019-11-06 17:03:06.663676,2019-11-06 17:03:07.472175,32,5.176277766666667,S6,Conflict_Resolution
False,LEFT,1066.6666688,,,,,LEFT,392.2008999999207,2019-11-06 17:03:08.589240,2019-11-06 17:03:09.202195,33,5.176277766666667,S6,Conflict_Resolution
False,LEFT,666.6666680000001,,,,,LEFT,408.99020000006203,2019-11-06 17:03:09.920236,2019-11-06 17:03:10.551220,34,5.176277766666667,S6,Conflict_Resolution
True,RIGHT,1366.6666694,,,,,RIGHT,563.1214,2019-11-06 17:03:11.969473,2019-11-06 17:03:12.755859,35,5.176277766666667,S6,Conflict_Resolution
True,RIGHT,1483.3333363,,,,,RIGHT,563.9843999999812,2019-11-06 17:03:14.290714,2019-11-06 17:03:15.076314,36,5.176277766666667,S6,Conflict_Resolution
True,LEFT,716.6666681,,,,,LEFT,475.5797000000257,2019-11-06 17:03:15.842374,2019-11-06 17:03:16.538726,37,5.176277766666667,S6,Conflict_Resolution
True,LEFT,816.6666683,,,,,LEFT,618.1497000000036,2019-11-06 17:03:17.404517,2019-11-06 17:03:18.240903,38,5.176277766666667,S6,Conflict_Resolution
True,LEFT,1066.6666688,,,,,LEFT,562.6887999999326,2019-11-06 17:03:19.356300,2019-11-06 17:03:20.141290,39,5.176277766666667,S6,Conflict_Resolution
False,LEFT,816.6666683,,,,,LEFT,542.0326000000841,2019-11-06 17:03:21.007470,2019-11-06 17:03:21.772167,40,5.176277766666667,S6,Conflict_Resolution
True,RIGHT,850.0000017,,,,,RIGHT,582.5585000000046,2019-11-06 17:03:22.672257,2019-11-06 17:03:23.479330,41,5.176277766666667,S6,Conflict_Resolution
False,LEFT,1166.666669,,,,,LEFT,545.3918999999132,2019-11-06 17:03:24.697151,2019-11-06 17:03:25.462777,42,5.176277766666667,S6,Conflict_Resolution
False,LEFT,566.6666678,,,,,LEFT,553.5294999999678,2019-11-06 17:03:26.078862,2019-11-06 17:03:26.855111,43,5.176277766666667,S6,Conflict_Resolution
False,RIGHT,1383.3333361,,,,,RIGHT,405.2404999999908,2019-11-06 17:03:28.285988,2019-11-06 17:03:28.911921,44,5.176277766666667,S6,Conflict_Resolution
False,RIGHT,783.3333349000001,,,,,RIGHT,506.9518000000244,2019-11-06 17:03:29.741261,2019-11-06 17:03:30.469131,45,5.176277766666667,S6,Conflict_Resolution
False,LEFT,1350.0000027,,,,,LEFT,445.5755000000181,2019-11-06 17:03:31.865211,2019-11-06 17:03:32.533081,46,5.176277766666667,S6,Conflict_Resolution
False,RIGHT,633.3333346000001,,,,,RIGHT,439.2596999999796,2019-11-06 17:03:33.216112,2019-11-06 17:03:33.877844,47,5.176277766666667,S6,Conflict_Resolution
True,LEFT,1400.0000028,,,,,LEFT,550.1404999999977,2019-11-06 17:03:35.316251,2019-11-06 17:03:36.087024,48,5.176277766666667,S6,Conflict_Resolution
False,LEFT,1366.6666694,,,,,LEFT,415.0185999999394,2019-11-06 17:03:37.496150,2019-11-06 17:03:38.132048,49,5.176277766666667,S6,Conflict_Resolution
True,RIGHT,933.3333352,,,,,RIGHT,475.6658000000016,2019-11-06 17:03:39.102152,2019-11-06 17:03:39.798532,50,5.176277766666667,S6,Conflict_Resolution
False,LEFT,900.0000018000001,,,,,LEFT,390.79739999999674,2019-11-06 17:03:40.747226,2019-11-06 17:03:41.361491,51,5.176277766666667,S6,Conflict_Resolution
True,LEFT,533.3333344,,,,,LEFT,570.4990000000407,2019-11-06 17:03:41.934435,2019-11-06 17:03:42.728035,52,5.176277766666667,S6,Conflict_Resolution
True,RIGHT,1000.000002,,,,,RIGHT,537.9376000000775,2019-11-06 17:03:43.777984,2019-11-06 17:03:44.538733,53,5.176277766666667,S6,Conflict_Resolution
True,LEFT,1250.0000025,,,,,LEFT,451.245100000051,2019-11-06 17:03:45.838765,2019-11-06 17:03:46.510216,54,5.176277766666667,S6,Conflict_Resolution
True,LEFT,1150.0000023,,,,,LEFT,584.1092999999091,2019-11-06 17:03:47.707296,2019-11-06 17:03:48.512985,55,5.176277766666667,S6,Conflict_Resolution
False,LEFT,966.6666686,,,,,LEFT,487.614600000029,2019-11-06 17:03:49.525981,2019-11-06 17:03:50.238166,56,5.176277766666667,S6,Conflict_Resolution
False,RIGHT,1366.6666694,,,,,RIGHT,493.372700000009,2019-11-06 17:03:51.654134,2019-11-06 17:03:52.369740,57,5.176277766666667,S6,Conflict_Resolution
False,LEFT,583.3333345,,,,,LEFT,411.97920000001886,2019-11-06 17:03:53.003420,2019-11-06 17:03:53.638040,58,5.176277766666667,S6,Conflict_Resolution
True,RIGHT,1083.3333355,,,,,RIGHT,497.745000000009,2019-11-06 17:03:54.768525,2019-11-06 17:03:55.487481,59,5.176277766666667,S6,Conflict_Resolution
True,LEFT,900.0000018000001,,,,,LEFT,418.2366000000002,2019-11-06 17:03:56.437875,2019-11-06 17:03:57.080068,60,5.176277766666667,S6,Conflict_Resolution
True,RIGHT,600.0000012,,,,,RIGHT,507.6756999999361,2019-11-06 17:03:57.730443,2019-11-06 17:03:58.459157,61,5.176277766666667,S6,Conflict_Resolution
False,RIGHT,1416.6666695000001,,,,,RIGHT,398.81000000002587,2019-11-06 17:03:59.923148,2019-11-06 17:04:00.545659,62,5.176277766666667,S6,Conflict_Resolution
False,LEFT,1200.0000024,,,,,LEFT,490.8057000000099,2019-11-06 17:04:01.793063,2019-11-06 17:04:02.505444,63,5.176277766666667,S6,Conflict_Resolution
True,LEFT,633.3333346000001,,,,,LEFT,673.2990000000427,2019-11-06 17:04:03.188736,2019-11-06 17:04:04.085035,64,5.176277766666667,S6,Conflict_Resolution
True,LEFT,1266.6666692000001,,,,,LEFT,503.5757000000558,2019-11-06 17:04:05.403024,2019-11-06 17:04:06.122016,65,5.176277766666667,S6,Conflict_Resolution
False,LEFT,516.6666677000001,,,,,LEFT,492.4916000001076,2019-11-06 17:04:06.678286,2019-11-06 17:04:07.394726,66,5.176277766666667,S6,Conflict_Resolution
True,RIGHT,700.0000014,,,,,RIGHT,580.4337999999234,2019-11-06 17:04:08.150166,2019-11-06 17:04:08.946297,67,5.176277766666667,S6,Conflict_Resolution
True,LEFT,1416.6666695000001,,,,,LEFT,573.0286000000433,2019-11-06 17:04:10.414538,2019-11-06 17:04:11.209247,68,5.176277766666667,S6,Conflict_Resolution
True,RIGHT,1316.6666693,,,,,RIGHT,590.0573000000122,2019-11-06 17:04:12.574100,2019-11-06 17:04:13.384953,69,5.176277766666667,S6,Conflict_Resolution
True,LEFT,1500.000003,,,,,LEFT,686.1856000000444,2019-11-06 17:04:14.931509,2019-11-06 17:04:15.838110,70,5.176277766666667,S6,Conflict_Resolution
False,RIGHT,1483.3333363,,,,,RIGHT,375.99920000002385,2019-11-06 17:04:17.372148,2019-11-06 17:04:17.969920,71,5.176277766666667,S6,Conflict_Resolution
False,LEFT,1100.0000022,,,,,LEFT,397.5213999999596,2019-11-06 17:04:19.120113,2019-11-06 17:04:19.741055,72,5.176277766666667,S6,Conflict_Resolution
True,RIGHT,1266.6666692000001,,,,,RIGHT,467.50919999999496,2019-11-06 17:04:21.065211,2019-11-06 17:04:21.756203,73,5.176277766666667,S6,Conflict_Resolution
False,RIGHT,1283.3333359,,,,,RIGHT,380.14240000006794,2019-11-06 17:04:23.076950,2019-11-06 17:04:23.680693,74,5.176277766666667,S6,Conflict_Resolution
False,RIGHT,833.333335,,,,,RIGHT,355.97310000002835,2019-11-06 17:04:24.563531,2019-11-06 17:04:25.142803,75,5.176277766666667,S6,Conflict_Resolution
False,LEFT,850.0000017,,,,,LEFT,361.8170999999393,2019-11-06 17:04:26.046037,2019-11-06 17:04:26.630295,76,5.176277766666667,S6,Conflict_Resolution
False,RIGHT,1216.6666691,,,,,RIGHT,447.7002999999513,2019-11-06 17:04:27.896950,2019-11-06 17:04:28.566307,77,5.176277766666667,S6,Conflict_Resolution
True,RIGHT,1033.3333354000001,,,,,RIGHT,558.4993999999597,2019-11-06 17:04:29.640152,2019-11-06 17:04:30.414029,78,5.176277766666667,S6,Conflict_Resolution
False,LEFT,1450.0000029,,,,,LEFT,381.69089999996686,2019-11-06 17:04:31.913429,2019-11-06 17:04:32.516051,79,5.176277766666667,S6,Conflict_Resolution
True,LEFT,1100.0000022,,,,,LEFT,542.3180999999886,2019-11-06 17:04:33.669855,2019-11-06 17:04:34.434195,80,5.176277766666667,S6,Conflict_Resolution
True,RIGHT,750.0000015,,,,,RIGHT,526.7112999999881,2019-11-06 17:04:35.231848,2019-11-06 17:04:35.980052,81,5.176277766666667,S6,Conflict_Resolution
True,RIGHT,883.3333351,,,,,RIGHT,501.7146000000139,2019-11-06 17:04:36.912585,2019-11-06 17:04:37.634732,82,5.176277766666667,S6,Conflict_Resolution
True,LEFT,916.6666685,,,,,LEFT,862.358200000017,2019-11-06 17:04:38.591150,2019-11-06 17:04:39.666832,83,5.176277766666667,S6,Conflict_Resolution
False,LEFT,716.6666681,,,,,LEFT,522.2239999999374,2019-11-06 17:04:40.438944,2019-11-06 17:04:41.182279,84,5.176277766666667,S6,Conflict_Resolution
True,LEFT,1000.000002,,,,,LEFT,474.58960000005845,2019-11-06 17:04:42.231950,2019-11-06 17:04:42.928444,85,5.176277766666667,S6,Conflict_Resolution
False,RIGHT,933.3333352,LEFT,-891.8660000000001,,,RIGHT,453.70900000000347,2019-11-06 17:04:43.899981,2019-11-06 17:04:44.569347,86,5.176277766666667,S6,Conflict_Resolution
False,LEFT,783.3333349000001,,,,,LEFT,481.8341999999802,2019-11-06 17:04:45.402937,2019-11-06 17:04:46.105920,87,5.176277766666667,S6,Conflict_Resolution
False,LEFT,1050.0000021,,,,,LEFT,429.15770000001885,2019-11-06 17:04:47.199194,2019-11-06 17:04:47.838835,88,5.176277766666667,S6,Conflict_Resolution
False,RIGHT,1466.6666696,,,,,RIGHT,400.1269999999977,2019-11-06 17:04:49.346938,2019-11-06 17:04:49.967296,89,5.176277766666667,S6,Conflict_Resolution
True,LEFT,866.6666684,,,,,LEFT,576.2247999999772,2019-11-06 17:04:50.871362,2019-11-06 17:04:51.668192,90,5.176277766666667,S6,Conflict_Resolution
True,LEFT,1200.0000024,,,,,LEFT,532.3908999999958,2019-11-06 17:04:52.916859,2019-11-06 17:04:53.670872,91,5.176277766666667,S6,Conflict_Resolution
True,LEFT,683.3333347,,,,,LEFT,459.2281999999841,2019-11-06 17:04:54.404020,2019-11-06 17:04:55.083828,92,5.176277766666667,S6,Conflict_Resolution
True,LEFT,1366.6666694,,,,,LEFT,534.7498999999516,2019-11-06 17:04:56.488986,2019-11-06 17:04:57.239757,93,5.176277766666667,S6,Conflict_Resolution
False,LEFT,1016.6666687000001,,,,,LEFT,415.4055999999855,2019-11-06 17:04:58.303988,2019-11-06 17:04:58.941074,94,5.176277766666667,S6,Conflict_Resolution
True,LEFT,850.0000017,,,,,LEFT,551.9056000000546,2019-11-06 17:04:59.840044,2019-11-06 17:05:00.616086,95,5.176277766666667,S6,Conflict_Resolution
False,RIGHT,1183.3333357000001,,,,,RIGHT,522.907000000032,2019-11-06 17:05:01.849925,2019-11-06 17:05:02.593903,96,5.176277766666667,S6,Conflict_Resolution
True,RIGHT,983.3333353,,,,,LEFT,384.36720000004243,2019-11-06 17:05:03.627315,2019-11-06 17:05:04.228316,97,5.176277766666667,S6,Conflict_Resolution
False,LEFT,866.6666684,,,,,LEFT,500.1380999999583,2019-11-06 17:05:05.146794,2019-11-06 17:05:05.867717,98,5.176277766666667,S6,Conflict_Resolution
True,RIGHT,1216.6666691,,,,,RIGHT,595.1061000000664,2019-11-06 17:05:07.134470,2019-11-06 17:05:07.952836,99,5.176277766666667,S6,Conflict_Resolution
False,LEFT,916.6666685,,,,,LEFT,377.0096000000649,2019-11-06 17:05:08.899979,2019-11-06 17:05:09.491745,100,5.176277766666667,S6,Conflict_Resolution
False,LEFT,633.3333346000001,,,,,LEFT,594.4047999998929,2019-11-06 17:05:10.174965,2019-11-06 17:05:10.992904,101,5.176277766666667,S6,Conflict_Resolution
False,RIGHT,983.3333353,,,,,RIGHT,480.19750000003114,2019-11-06 17:05:12.026191,2019-11-06 17:05:12.730065,102,5.176277766666667,S6,Conflict_Resolution
False,RIGHT,583.3333345,,,,,RIGHT,466.3403000000699,2019-11-06 17:05:13.362970,2019-11-06 17:05:14.050993,103,5.176277766666667,S6,Conflict_Resolution
False,LEFT,766.6666682,,,,,LEFT,415.4113999999254,2019-11-06 17:05:14.869001,2019-11-06 17:05:15.508190,104,5.176277766666667,S6,Conflict_Resolution
True,RIGHT,800.0000016,,,,,RIGHT,554.022400000008,2019-11-06 17:05:16.356969,2019-11-06 17:05:17.134058,105,5.176277766666667,S6,Conflict_Resolution
False,LEFT,1316.6666693,,,,,LEFT,416.5242000000262,2019-11-06 17:05:18.499060,2019-11-06 17:05:19.135855,106,5.176277766666667,S6,Conflict_Resolution
True,RIGHT,1100.0000022,,,,,RIGHT,471.4175000000296,2019-11-06 17:05:20.283259,2019-11-06 17:05:20.975485,107,5.176277766666667,S6,Conflict_Resolution
True,LEFT,1216.6666691,,,,,LEFT,539.376700000048,2019-11-06 17:05:22.230762,2019-11-06 17:05:22.991213,108,5.176277766666667,S6,Conflict_Resolution
False,RIGHT,1316.6666693,,,,,RIGHT,437.2253000000228,2019-11-06 17:05:24.356951,2019-11-06 17:05:25.014536,109,5.176277766666667,S6,Conflict_Resolution
True,RIGHT,1433.3333362,,,,,RIGHT,775.5310999999665,2019-11-06 17:05:26.494334,2019-11-06 17:05:27.491072,110,5.176277766666667,S6,Conflict_Resolution
False,LEFT,1400.0000028,,,,,LEFT,530.2073999999948,2019-11-06 17:05:28.937865,2019-11-06 17:05:29.688791,111,5.176277766666667,S6,Conflict_Resolution
True,RIGHT,900.0000018000001,,,,,RIGHT,496.5794999999389,2019-11-06 17:05:30.638133,2019-11-06 17:05:31.355043,112,5.176277766666667,S6,Conflict_Resolution
True,RIGHT,1050.0000021,,,,,RIGHT,484.273700000017,2019-11-06 17:05:32.453823,2019-11-06 17:05:33.153769,113,5.176277766666667,S6,Conflict_Resolution
False,RIGHT,733.3333348,,,,,RIGHT,420.18910000001597,2019-11-06 17:05:33.936845,2019-11-06 17:05:34.579748,114,5.176277766666667,S6,Conflict_Resolution
False,RIGHT,883.3333351,,,,,RIGHT,358.17759999997634,2019-11-06 17:05:35.513938,2019-11-06 17:05:36.093217,115,5.176277766666667,S6,Conflict_Resolution
False,RIGHT,950.0000019,,,,,RIGHT,377.6544999999487,2019-11-06 17:05:37.084615,2019-11-06 17:05:37.678258,116,5.176277766666667,S6,Conflict_Resolution
True,LEFT,1166.666669,,,,,LEFT,747.9569000000765,2019-11-06 17:05:38.894076,2019-11-06 17:05:39.863738,117,5.176277766666667,S6,Conflict_Resolution
False,RIGHT,900.0000018000001,,,,,RIGHT,339.6064999999453,2019-11-06 17:05:40.818823,2019-11-06 17:05:41.381173,118,5.176277766666667,S6,Conflict_Resolution
True,RIGHT,950.0000019,,,,,RIGHT,451.99989999991885,2019-11-06 17:05:42.381139,2019-11-06 17:05:43.056735,119,5.176277766666667,S6,Conflict_Resolution
True,RIGHT,1133.3333356,,,,,RIGHT,493.76089999998385,2019-11-06 17:05:44.240015,2019-11-06 17:05:44.945058,120,5.176277766666667,S6,Conflict_Resolution
True,LEFT,733.3333348,,,,,LEFT,554.5041999999967,2019-11-06 17:05:45.733924,2019-11-06 17:05:46.510786,121,5.176277766666667,S6,Conflict_Resolution
True,LEFT,1350.0000027,,,,,LEFT,568.9296000000468,2019-11-06 17:05:47.898890,2019-11-06 17:05:48.684496,122,5.176277766666667,S6,Conflict_Resolution
True,RIGHT,550.0000011,,,,,RIGHT,650.2166000000216,2019-11-06 17:05:49.285248,2019-11-06 17:05:50.157456,123,5.176277766666667,S6,Conflict_Resolution
True,LEFT,950.0000019,,,,,LEFT,520.2148999999281,2019-11-06 17:05:51.154999,2019-11-06 17:05:51.895775,124,5.176277766666667,S6,Conflict_Resolution
False,RIGHT,1133.3333356,,,,,RIGHT,427.93300000005274,2019-11-06 17:05:53.080317,2019-11-06 17:05:53.730950,125,5.176277766666667,S6,Conflict_Resolution
True,LEFT,1450.0000029,,,,,LEFT,472.8996000000052,2019-11-06 17:05:55.231942,2019-11-06 17:05:55.924796,126,5.176277766666667,S6,Conflict_Resolution
True,LEFT,583.3333345,,,,,LEFT,448.4731999999667,2019-11-06 17:05:56.548086,2019-11-06 17:05:57.220955,127,5.176277766666667,S6,Conflict_Resolution
False,RIGHT,550.0000011,,,,,RIGHT,496.5138999999681,2019-11-06 17:05:57.820768,2019-11-06 17:05:58.539731,128,5.176277766666667,S6,Conflict_Resolution
True,LEFT,966.6666686,,,,,LEFT,408.84029999995164,2019-11-06 17:05:59.553272,2019-11-06 17:06:00.183804,129,5.176277766666667,S6,Conflict_Resolution
False,RIGHT,1100.0000022,,,,,RIGHT,360.94359999992776,2019-11-06 17:06:01.333652,2019-11-06 17:06:01.916823,130,5.176277766666667,S6,Conflict_Resolution
False,LEFT,1150.0000023,,,,,LEFT,358.98599999995895,2019-11-06 17:06:03.117481,2019-11-06 17:06:03.700755,131,5.176277766666667,S6,Conflict_Resolution
False,RIGHT,1433.3333362,,,,,RIGHT,394.61210000001756,2019-11-06 17:06:05.183222,2019-11-06 17:06:05.799303,132,5.176277766666667,S6,Conflict_Resolution
True,RIGHT,1233.3333358,,,,,RIGHT,447.4072000000433,2019-11-06 17:06:07.080558,2019-11-06 17:06:07.743817,133,5.176277766666667,S6,Conflict_Resolution
True,LEFT,516.6666677000001,,,,,LEFT,495.12060000006386,2019-11-06 17:06:08.310203,2019-11-06 17:06:09.028388,134,5.176277766666667,S6,Conflict_Resolution
False,RIGHT,600.0000012,,,,,RIGHT,356.11020000010285,2019-11-06 17:06:09.668084,2019-11-06 17:06:10.245675,135,5.176277766666667,S6,Conflict_Resolution
True,RIGHT,583.3333345,,,,,LEFT,419.2919999999276,2019-11-06 17:06:10.878892,2019-11-06 17:06:11.513961,136,5.176277766666667,S6,Conflict_Resolution
True,LEFT,566.6666678,,,,,LEFT,575.5053999999973,2019-11-06 17:06:12.123922,2019-11-06 17:06:12.921885,137,5.176277766666667,S6,Conflict_Resolution
True,LEFT,1316.6666693,,,,,LEFT,676.0967999999821,2019-11-06 17:06:14.289115,2019-11-06 17:06:15.187765,138,5.176277766666667,S6,Conflict_Resolution
False,RIGHT,750.0000015,,,,,RIGHT,410.8575000000201,2019-11-06 17:06:15.985646,2019-11-06 17:06:16.619293,139,5.176277766666667,S6,Conflict_Resolution
True,RIGHT,833.333335,,,,,RIGHT,491.77430000008826,2019-11-06 17:06:17.502647,2019-11-06 17:06:18.210947,140,5.176277766666667,S6,Conflict_Resolution
False,RIGHT,1000.000002,,,,,RIGHT,361.3405999999486,2019-11-06 17:06:19.261033,2019-11-06 17:06:19.843201,141,5.176277766666667,S6,Conflict_Resolution
True,RIGHT,1333.3333360000001,,,,,RIGHT,330.0950999999941,2019-11-06 17:06:21.223882,2019-11-06 17:06:21.774856,142,5.176277766666667,S6,Conflict_Resolution
True,RIGHT,783.3333349000001,,,,,RIGHT,487.11649999995643,2019-11-06 17:06:22.596589,2019-11-06 17:06:23.305633,143,5.176277766666667,S6,Conflict_Resolution
False,RIGHT,683.3333347,,,,,RIGHT,365.8510999999862,2019-11-06 17:06:24.042558,2019-11-06 17:06:24.632020,144,5.176277766666667,S6,Conflict_Resolution
False,LEFT,1416.6666695000001,,,,,LEFT,553.3198999999058,2019-11-06 17:06:26.096106,2019-11-06 17:06:26.872218,145,5.176277766666667,S6,Conflict_Resolution
True,RIGHT,1466.6666696,,,,,RIGHT,628.8630999999896,2019-11-06 17:06:28.384777,2019-11-06 17:06:29.233747,146,5.176277766666667,S6,Conflict_Resolution
True,RIGHT,683.3333347,,,,,RIGHT,492.77109999991353,2019-11-06 17:06:29.963533,2019-11-06 17:06:30.677223,147,5.176277766666667,S6,Conflict_Resolution
True,LEFT,616.6666679,,,,,LEFT,579.0140999999949,2019-11-06 17:06:31.342751,2019-11-06 17:06:32.138500,148,5.176277766666667,S6,Conflict_Resolution
False,RIGHT,800.0000016,,,,,RIGHT,531.6028999999389,2019-11-06 17:06:32.988961,2019-11-06 17:06:33.743215,149,5.176277766666667,S6,Conflict_Resolution
False,LEFT,533.3333344,,,,,LEFT,372.9867000000695,2019-11-06 17:06:34.327616,2019-11-06 17:06:34.922865,150,5.176277766666667,S6,Conflict_Resolution
True,RIGHT,733.3333348,,,,,RIGHT,551.6757999999982,2019-11-06 17:06:35.710110,2019-11-06 17:06:36.485021,151,5.176277766666667,S6,Conflict_Resolution
True,RIGHT,1150.0000023,,,,,RIGHT,434.17039999997087,2019-11-06 17:06:37.685423,2019-11-06 17:06:38.342005,152,5.176277766666667,S6,Conflict_Resolution
True,RIGHT,1416.6666695000001,,,,,RIGHT,541.7621000000281,2019-11-06 17:06:39.798094,2019-11-06 17:06:40.561704,153,5.176277766666667,S6,Conflict_Resolution
False,LEFT,1216.6666691,,,,,LEFT,634.8332999999684,2019-11-06 17:06:41.828057,2019-11-06 17:06:42.682744,154,5.176277766666667,S6,Conflict_Resolution
False,LEFT,1000.000002,,,,,LEFT,492.3252999999477,2019-11-06 17:06:43.733396,2019-11-06 17:06:44.448305,155,5.176277766666667,S6,Conflict_Resolution
False,LEFT,1500.000003,,,,,LEFT,440.69520000005014,2019-11-06 17:06:46.000637,2019-11-06 17:06:46.662942,156,5.176277766666667,S6,Conflict_Resolution
False,RIGHT,1233.3333358,,,,,RIGHT,402.97499999996944,2019-11-06 17:06:47.946898,2019-11-06 17:06:48.570048,157,5.176277766666667,S6,Conflict_Resolution
False,LEFT,950.0000019,,,,,LEFT,531.9693000000143,2019-11-06 17:06:49.568645,2019-11-06 17:06:50.321962,158,5.176277766666667,S6,Conflict_Resolution
False,RIGHT,1333.3333360000001,,,,,RIGHT,465.0958999999375,2019-11-06 17:06:51.702755,2019-11-06 17:06:52.389405,159,5.176277766666667,S6,Conflict_Resolution
True,RIGHT,1383.3333361,,,,,RIGHT,530.8619999999564,2019-11-06 17:06:53.820177,2019-11-06 17:06:54.572229,160,5.176277766666667,S6,Conflict_Resolution
