Congruence,Stimulus_Side,ITI,Previous_Response,Previous_RT,Cue_Response,Cue_Response_RT,Response,RT,Trial_Time_Onset,Trial_Time_End,Trial_Order,Participant,Task
INCONGRUENT,RIGHT,816.6666683,"('Time_Max_Exceeded', 816.7204000000083)",0,,,Time_Max_Exceeded,1500.0879,52:01.5,52:03.0,1,s4,ConflictResolution
INCONGRUENT,LEFT,966.6666686,"('Time_Max_Exceeded', 1.0435000000370565)",0,,,LEFT,904.9076,52:04.0,52:05.1,2,s4,ConflictResolution
INCONGRUENT,LEFT,1000.000002,"('Time_Max_Exceeded', 1000.2551999999696)",0,,,LEFT,802.1859,52:06.1,52:07.1,3,s4,ConflictResolution
INCONGRUENT,LEFT,1150.000002,"('Time_Max_Exceeded', 1150.1637000000073)",0,,,LEFT,692.8141,52:08.3,52:09.2,4,s4,ConflictResolution
CONGRUENT,LEFT,1316.666669,"('Time_Max_Exceeded', 1316.9957999999724)",0,,,LEFT,773.7402,52:10.6,52:11.5,5,s4,ConflictResolution
CONGRUENT,RIGHT,1000.000002,"('Time_Max_Exceeded', 1000.3321999998889)",0,,,RIGHT,413.0845,52:12.6,52:13.2,6,s4,ConflictResolution
INCONGRUENT,RIGHT,1333.333336,"('Time_Max_Exceeded', 1333.628900000008)",0,,,RIGHT,703.6406,52:14.5,52:15.4,7,s4,ConflictResolution
INCONGRUENT,RIGHT,683.3333347,"('Time_Max_Exceeded', 683.494200000041)",0,,,RIGHT,572.6692,52:16.1,52:16.9,8,s4,ConflictResolution
INCONGRUENT,LEFT,1083.333336,"('Time_Max_Exceeded', 1083.6606000000302)",0,,,LEFT,487.2302,52:18.0,52:18.7,9,s4,ConflictResolution
CONGRUENT,LEFT,1216.666669,"('Time_Max_Exceeded', 0.4195000000208893)",0,,,LEFT,638.4568,52:20.0,52:20.8,10,s4,ConflictResolution
INCONGRUENT,LEFT,1400.000003,"('Time_Max_Exceeded', 1400.9251999999606)",0,,,LEFT,540.7669,52:22.2,52:23.0,11,s4,ConflictResolution
INCONGRUENT,LEFT,1216.666669,"('Time_Max_Exceeded', 1216.9863999999961)",0,,,LEFT,466.181,52:24.2,52:24.9,12,s4,ConflictResolution
INCONGRUENT,RIGHT,900.0000018,"('Time_Max_Exceeded', 0.34190000008038623)",0,,,RIGHT,561.8261,52:25.8,52:26.6,13,s4,ConflictResolution
INCONGRUENT,RIGHT,600.0000012,"('Time_Max_Exceeded', 600.3071000000091)",0,,,RIGHT,488.9318,52:27.2,52:27.9,14,s4,ConflictResolution
INCONGRUENT,LEFT,816.6666683,"('Time_Max_Exceeded', 816.9500999999855)",0,,,LEFT,501.3436,52:28.8,52:29.5,15,s4,ConflictResolution
CONGRUENT,LEFT,1150.000002,"('Time_Max_Exceeded', 1150.3768999999693)",0,,,LEFT,649.6569,52:30.6,52:31.5,16,s4,ConflictResolution
INCONGRUENT,LEFT,1283.333336,"('Time_Max_Exceeded', 1283.5244999999986)",0,,,LEFT,600.9778,52:32.8,52:33.6,17,s4,ConflictResolution
INCONGRUENT,LEFT,1333.333336,"('Time_Max_Exceeded', 1333.661599999914)",0,,,LEFT,529.7085,52:35.0,52:35.7,18,s4,ConflictResolution
CONGRUENT,LEFT,633.3333346,"('Time_Max_Exceeded', 633.7039000000004)",0,,,LEFT,528.4716,52:36.3,52:37.1,19,s4,ConflictResolution
CONGRUENT,RIGHT,1166.666669,"('Time_Max_Exceeded', 1167.0047000000068)",0,,,RIGHT,457.79,52:38.3,52:38.9,20,s4,ConflictResolution
CONGRUENT,LEFT,516.6666677,"('Time_Max_Exceeded', 516.9988000000103)",0,,,LEFT,457.4728,52:39.5,52:40.1,21,s4,ConflictResolution
INCONGRUENT,RIGHT,800.0000016,"('Time_Max_Exceeded', 800.3345999999283)",0,,,RIGHT,487.708,52:41.0,52:41.7,22,s4,ConflictResolution
INCONGRUENT,RIGHT,700.0000014,"('Time_Max_Exceeded', 0.15159999998104468)",0,,,RIGHT,697.5781,52:42.4,52:43.3,23,s4,ConflictResolution
CONGRUENT,LEFT,1116.666669,"('Time_Max_Exceeded', 1116.9494999999188)",0,,,LEFT,466.2289,52:44.4,52:45.1,24,s4,ConflictResolution
INCONGRUENT,LEFT,1366.666669,"('Time_Max_Exceeded', 1367.204299999912)",0,,,LEFT,631.2994,52:46.5,52:47.3,25,s4,ConflictResolution
CONGRUENT,LEFT,1433.333336,"('Time_Max_Exceeded', 0.4314999999905922)",0,,,LEFT,507.165,52:48.8,52:49.5,26,s4,ConflictResolution
INCONGRUENT,RIGHT,533.3333344,"('Time_Max_Exceeded', 0.44839999998202984)",0,,,RIGHT,519.7888,52:50.1,52:50.8,27,s4,ConflictResolution
CONGRUENT,LEFT,1383.333336,"('Time_Max_Exceeded', 1384.7841000000471)",0,,,LEFT,447.5907,52:52.2,52:52.9,28,s4,ConflictResolution
INCONGRUENT,LEFT,1250.000003,"('Time_Max_Exceeded', 1250.2499000000853)",0,,,LEFT,519.0032,52:54.1,52:54.9,29,s4,ConflictResolution
INCONGRUENT,RIGHT,950.0000019,"('Time_Max_Exceeded', 950.3055999999788)",0,,,RIGHT,529.3825,52:55.8,52:56.6,30,s4,ConflictResolution
CONGRUENT,LEFT,750.0000015,"('Time_Max_Exceeded', 750.331899999992)",0,,,LEFT,445.9934,52:57.3,52:58.0,31,s4,ConflictResolution
CONGRUENT,LEFT,583.3333345,"('Time_Max_Exceeded', 583.6575999999241)",0,,,LEFT,466.9281,52:58.6,52:59.3,32,s4,ConflictResolution
INCONGRUENT,RIGHT,1150.000002,"('Time_Max_Exceeded', 1151.9554999999855)",0,,,RIGHT,490.0819,53:00.5,53:01.2,33,s4,ConflictResolution
CONGRUENT,RIGHT,850.0000017,"('Time_Max_Exceeded', 850.3306000000066)",0,,,RIGHT,467.0625,53:02.0,53:02.7,34,s4,ConflictResolution
INCONGRUENT,RIGHT,666.666668,"('Time_Max_Exceeded', 666.9163000000253)",0,,,RIGHT,506.302,53:03.4,53:04.1,35,s4,ConflictResolution
CONGRUENT,RIGHT,950.0000019,"('Time_Max_Exceeded', 950.2019999999902)",0,,,RIGHT,428.6647,53:05.1,53:05.7,36,s4,ConflictResolution
CONGRUENT,RIGHT,1333.333336,"('Time_Max_Exceeded', 0.2095999999482956)",0,,,RIGHT,356.5962,53:07.1,53:07.6,37,s4,ConflictResolution
INCONGRUENT,LEFT,933.3333352,"('Time_Max_Exceeded', 933.5966999999528)",0,,,LEFT,534.0464,53:08.6,53:09.3,38,s4,ConflictResolution
INCONGRUENT,RIGHT,1000.000002,"('Time_Max_Exceeded', 1000.2771000000621)",0,,,RIGHT,531.1905,53:10.4,53:11.1,39,s4,ConflictResolution
INCONGRUENT,LEFT,766.6666682,"('Time_Max_Exceeded', 767.5438999999642)",0,,,LEFT,492.3502,53:11.9,53:12.6,40,s4,ConflictResolution
CONGRUENT,LEFT,1400.000003,"('Time_Max_Exceeded', 1400.3329999999323)",0,,,LEFT,427.713,53:14.0,53:14.6,41,s4,ConflictResolution
INCONGRUENT,RIGHT,1450.000003,"('Time_Max_Exceeded', 1450.329399999987)",0,,,RIGHT,481.3124,53:16.1,53:16.8,42,s4,ConflictResolution
INCONGRUENT,LEFT,1183.333336,"('Time_Max_Exceeded', 1183.6381000000529)",0,,,LEFT,457.581,53:18.0,53:18.7,43,s4,ConflictResolution
CONGRUENT,RIGHT,700.0000014,"('Time_Max_Exceeded', 700.3504000000476)",0,,,RIGHT,387.5418,53:19.4,53:20.0,44,s4,ConflictResolution
INCONGRUENT,LEFT,800.0000016,"('Time_Max_Exceeded', 800.3039999999828)",0,,,LEFT,444.3453,53:20.8,53:21.5,45,s4,ConflictResolution
CONGRUENT,RIGHT,983.3333353,"('Time_Max_Exceeded', 983.5346999999501)",0,,,RIGHT,391.877,53:22.5,53:23.1,46,s4,ConflictResolution
INCONGRUENT,RIGHT,1483.333336,"('Time_Max_Exceeded', 1483.8340999999673)",0,,,RIGHT,501.6696,53:24.6,53:25.3,47,s4,ConflictResolution
CONGRUENT,RIGHT,1150.000002,"('Time_Max_Exceeded', 1150.2586999999949)",0,,,RIGHT,402.7807,53:26.5,53:27.1,48,s4,ConflictResolution
INCONGRUENT,LEFT,900.0000018,"('Time_Max_Exceeded', 900.329299999953)",0,,,LEFT,436.6803,53:28.0,53:28.6,49,s4,ConflictResolution
CONGRUENT,RIGHT,1233.333336,"('Time_Max_Exceeded', 1233.6639000000105)",0,,,RIGHT,376.2793,53:29.9,53:30.5,50,s4,ConflictResolution
CONGRUENT,RIGHT,1483.333336,"('Time_Max_Exceeded', 1483.6095000000569)",0,,,RIGHT,425.9894,53:32.0,53:32.6,51,s4,ConflictResolution
INCONGRUENT,LEFT,1016.666669,"('Time_Max_Exceeded', 1016.9366000000082)",0,,,LEFT,475.3536,53:33.7,53:34.3,52,s4,ConflictResolution
INCONGRUENT,LEFT,516.6666677,"('Time_Max_Exceeded', 0.11189999997895939)",0,,,LEFT,520.9357,53:34.9,53:35.6,53,s4,ConflictResolution
INCONGRUENT,LEFT,1383.333336,"('Time_Max_Exceeded', 1383.5897999999816)",0,,,LEFT,509.5551,53:37.0,53:37.7,54,s4,ConflictResolution
INCONGRUENT,RIGHT,1083.333336,"('Time_Max_Exceeded', 1083.7148000000525)",-0.96,,,RIGHT,435.454,53:38.9,53:39.5,55,s4,ConflictResolution
CONGRUENT,LEFT,1000.000002,"('Time_Max_Exceeded', 1000.4615999999942)",0,,,LEFT,431.0851,53:40.5,53:41.2,56,s4,ConflictResolution
INCONGRUENT,LEFT,700.0000014,"('Time_Max_Exceeded', 700.3234999999677)",0,,,LEFT,530.1694,53:41.9,53:42.6,57,s4,ConflictResolution
INCONGRUENT,RIGHT,1416.66667,"('Time_Max_Exceeded', 0.32750000002579327)",0,,,RIGHT,492.6004,53:44.1,53:44.8,58,s4,ConflictResolution
CONGRUENT,RIGHT,1433.333336,"('Time_Max_Exceeded', 1433.5873999999649)",0,,,RIGHT,392.5587,53:46.2,53:46.8,59,s4,ConflictResolution
INCONGRUENT,RIGHT,500.000001,"('Time_Max_Exceeded', 500.5095999999867)",0,,,RIGHT,515.0415,53:47.3,53:48.1,60,s4,ConflictResolution
CONGRUENT,LEFT,733.3333348,"('Time_Max_Exceeded', 733.4905000000163)",0,,,LEFT,401.8672,53:48.8,53:49.4,61,s4,ConflictResolution
CONGRUENT,RIGHT,750.0000015,"('Time_Max_Exceeded', 750.2868999999919)",0,,,RIGHT,361.9037,53:50.2,53:50.8,62,s4,ConflictResolution
CONGRUENT,RIGHT,616.6666679,"('Time_Max_Exceeded', 0.18149999993966048)",0,,,RIGHT,360.2082,53:51.4,53:52.0,63,s4,ConflictResolution
CONGRUENT,LEFT,1250.000003,"('Time_Max_Exceeded', 0.09349999993446545)",0,,,LEFT,385.7496,53:53.3,53:53.8,64,s4,ConflictResolution
CONGRUENT,RIGHT,666.666668,"('Time_Max_Exceeded', 666.9167999999672)",0,,,RIGHT,365.8154,53:54.5,53:55.1,65,s4,ConflictResolution
CONGRUENT,RIGHT,633.3333346,"('Time_Max_Exceeded', 633.4851000000299)",0,,,RIGHT,381.1983,53:55.8,53:56.3,66,s4,ConflictResolution
CONGRUENT,RIGHT,1350.000003,"('Time_Max_Exceeded', 1350.5451999999423)",0,,,RIGHT,426.7268,53:57.7,53:58.4,67,s4,ConflictResolution
CONGRUENT,LEFT,666.666668,"('Time_Max_Exceeded', 668.4685000000172)",0,,,LEFT,415.504,53:59.1,53:59.7,68,s4,ConflictResolution
INCONGRUENT,RIGHT,616.6666679,"('Time_Max_Exceeded', 616.9296000000486)",0,,,RIGHT,427.6435,54:00.3,54:00.9,69,s4,ConflictResolution
CONGRUENT,RIGHT,1300.000003,"('Time_Max_Exceeded', 1302.4341999999933)",0,,,RIGHT,393.1227,54:02.3,54:02.9,70,s4,ConflictResolution
CONGRUENT,LEFT,1466.66667,"('Time_Max_Exceeded', 1467.0842000000448)",0,,,LEFT,415.5039,54:04.4,54:05.0,71,s4,ConflictResolution
CONGRUENT,RIGHT,1250.000003,"('Time_Max_Exceeded', 1250.2640000000156)",0,,,RIGHT,404.0314,54:06.3,54:06.9,72,s4,ConflictResolution
CONGRUENT,RIGHT,600.0000012,"('Time_Max_Exceeded', 602.559000000042)",0,,,RIGHT,463.7333,54:07.5,54:08.2,73,s4,ConflictResolution
INCONGRUENT,RIGHT,1183.333336,"('Time_Max_Exceeded', 1183.5901999999123)",0,,,RIGHT,692.3376,54:09.4,54:10.3,74,s4,ConflictResolution
CONGRUENT,RIGHT,916.6666685,"('Time_Max_Exceeded', 917.0866000000615)",0,,,RIGHT,466.6159,54:11.2,54:11.9,75,s4,ConflictResolution
INCONGRUENT,LEFT,583.3333345,"('Time_Max_Exceeded', 583.8747999999896)",0,,,LEFT,493.0023,54:12.5,54:13.2,76,s4,ConflictResolution
CONGRUENT,RIGHT,1450.000003,"('Time_Max_Exceeded', 1452.3509000000558)",0,,,RIGHT,366.9487,54:14.7,54:15.3,77,s4,ConflictResolution
INCONGRUENT,RIGHT,1383.333336,"('Time_Max_Exceeded', 1383.6572999999817)",0,,,RIGHT,522.0906,54:16.7,54:17.4,78,s4,ConflictResolution
CONGRUENT,LEFT,900.0000018,"('Time_Max_Exceeded', 902.28639999998)",0,,,LEFT,427.3505,54:18.3,54:18.9,79,s4,ConflictResolution
CONGRUENT,RIGHT,900.0000018,"('Time_Max_Exceeded', 900.3253000000768)",0,,,RIGHT,412.1092,54:19.9,54:20.5,80,s4,ConflictResolution
CONGRUENT,LEFT,966.6666686,"('Time_Max_Exceeded', 966.9751000000133)",0,,,LEFT,414.7227,54:21.5,54:22.1,81,s4,ConflictResolution
CONGRUENT,LEFT,1416.66667,"('Time_Max_Exceeded', 1416.8465000000197)",0,,,LEFT,389.6647,54:23.5,54:24.1,82,s4,ConflictResolution
INCONGRUENT,LEFT,1033.333335,"('Time_Max_Exceeded', 1033.5871999999426)",0,,,LEFT,579.4855,54:25.2,54:26.0,83,s4,ConflictResolution
INCONGRUENT,LEFT,916.6666685,"('Time_Max_Exceeded', 918.5241999999789)",0,,,LEFT,560.0324,54:26.9,54:27.7,84,s4,ConflictResolution
CONGRUENT,LEFT,833.333335,"('Time_Max_Exceeded', 0.1643000000512984)",0,,,LEFT,430.45,54:28.5,54:29.2,85,s4,ConflictResolution
CONGRUENT,LEFT,766.6666682,"('Time_Max_Exceeded', 766.8171999999913)",0,,,LEFT,434.4141,54:30.0,54:30.6,86,s4,ConflictResolution
INCONGRUENT,LEFT,1316.666669,"('Time_Max_Exceeded', 1316.9944999999643)",0,,,LEFT,580.9746,54:32.0,54:32.7,87,s4,ConflictResolution
INCONGRUENT,RIGHT,1033.333335,"('Time_Max_Exceeded', 1033.61510000002)",0,,,RIGHT,587.0127,54:33.8,54:34.6,88,s4,ConflictResolution
CONGRUENT,LEFT,916.6666685,"('Time_Max_Exceeded', 0.5122000000028493)",0,,,LEFT,471.6742,54:35.5,54:36.2,89,s4,ConflictResolution
CONGRUENT,LEFT,816.6666683,"('Time_Max_Exceeded', 819.4515999999794)",0,,,LEFT,400.4152,54:37.1,54:37.7,90,s4,ConflictResolution
INCONGRUENT,RIGHT,716.6666681,"('Time_Max_Exceeded', 716.9298999999683)",0,,,RIGHT,522.9101,54:38.4,54:39.1,91,s4,ConflictResolution
CONGRUENT,RIGHT,883.3333351,"('Time_Max_Exceeded', 883.591000000024)",0,,,RIGHT,457.5259,54:40.0,54:40.7,92,s4,ConflictResolution
INCONGRUENT,LEFT,1483.333336,"('Time_Max_Exceeded', 1483.6731999999984)",0,,,LEFT,492.8266,54:42.2,54:42.9,93,s4,ConflictResolution
INCONGRUENT,LEFT,1500.000003,"('Time_Max_Exceeded', 1500.343399999906)",0,,,LEFT,514.7699,54:44.4,54:45.2,94,s4,ConflictResolution
INCONGRUENT,LEFT,950.0000019,"('Time_Max_Exceeded', 950.262500000008)",0,,,LEFT,484.4534,54:46.1,54:46.8,95,s4,ConflictResolution
INCONGRUENT,RIGHT,1283.333336,"('Time_Max_Exceeded', 1283.544699999993)",0,,,RIGHT,503.0876,54:48.1,54:48.8,96,s4,ConflictResolution
CONGRUENT,RIGHT,1416.66667,"('Time_Max_Exceeded', 1416.927899999905)",0,,,RIGHT,422.648,54:50.3,54:50.9,97,s4,ConflictResolution
INCONGRUENT,RIGHT,583.3333345,"('Time_Max_Exceeded', 583.6577000000034)",0,,,RIGHT,551.861,54:51.5,54:52.3,98,s4,ConflictResolution
CONGRUENT,LEFT,1133.333336,"('Time_Max_Exceeded', 1133.593000000019)",0,,,LEFT,415.6612,54:53.4,54:54.1,99,s4,ConflictResolution
INCONGRUENT,LEFT,833.333335,"('Time_Max_Exceeded', 833.6706000000049)",0,,,LEFT,537.5792,54:54.9,54:55.7,100,s4,ConflictResolution
INCONGRUENT,RIGHT,1350.000003,"('Time_Max_Exceeded', 0.08239999999659631)",0,,,RIGHT,483.6464,54:57.0,54:57.7,101,s4,ConflictResolution
INCONGRUENT,RIGHT,866.6666684,"('Time_Max_Exceeded', 866.9984999999087)",0,,,RIGHT,552.2195,54:58.6,54:59.4,102,s4,ConflictResolution
CONGRUENT,RIGHT,683.3333347,"('Time_Max_Exceeded', 685.9508000000005)",0,,,RIGHT,505.539,55:00.1,55:00.8,103,s4,ConflictResolution
CONGRUENT,RIGHT,800.0000016,"('Time_Max_Exceeded', 0.17809999997098203)",0,,,RIGHT,418.1503,55:01.6,55:02.2,104,s4,ConflictResolution
CONGRUENT,LEFT,933.3333352,"('Time_Max_Exceeded', 933.6375999999973)",0,,,LEFT,420.8619,55:03.2,55:03.8,105,s4,ConflictResolution
INCONGRUENT,LEFT,1466.66667,"('Time_Max_Exceeded', 0.2271000000746426)",0,,,LEFT,559.2634,55:05.3,55:06.1,106,s4,ConflictResolution
CONGRUENT,LEFT,1283.333336,"('Time_Max_Exceeded', 1283.6684000000105)",0,,,LEFT,423.1133,55:07.4,55:08.0,107,s4,ConflictResolution
CONGRUENT,RIGHT,1033.333335,"('Time_Max_Exceeded', 1033.5938999999144)",0,,,RIGHT,451.4729,55:09.1,55:09.7,108,s4,ConflictResolution
INCONGRUENT,LEFT,750.0000015,"('Time_Max_Exceeded', 750.3285999999889)",0,,,LEFT,491.0291,55:10.5,55:11.2,109,s4,ConflictResolution
INCONGRUENT,RIGHT,766.6666682,"('Time_Max_Exceeded', 767.1586999999818)",0,,,RIGHT,574.3855,55:12.0,55:12.8,110,s4,ConflictResolution
INCONGRUENT,LEFT,1233.333336,"('Time_Max_Exceeded', 1233.671700000059)",0,,,LEFT,492.2042,55:14.0,55:14.7,111,s4,ConflictResolution
CONGRUENT,RIGHT,716.6666681,"('Time_Max_Exceeded', 0.34679999998843414)",0,,,RIGHT,425.484,55:15.5,55:16.1,112,s4,ConflictResolution
CONGRUENT,RIGHT,500.000001,"('Time_Max_Exceeded', 500.34419999997226)",0,,,RIGHT,479.4708,55:16.6,55:17.3,113,s4,ConflictResolution
INCONGRUENT,RIGHT,1166.666669,"('Time_Max_Exceeded', 1167.1698000000106)",0,,,RIGHT,672.1492,55:18.5,55:19.4,114,s4,ConflictResolution
INCONGRUENT,LEFT,633.3333346,"('Time_Max_Exceeded', 633.676199999968)",0,,,LEFT,577.8936,55:20.1,55:20.8,115,s4,ConflictResolution
CONGRUENT,LEFT,1033.333335,"('Time_Max_Exceeded', 1033.7134999999762)",0,,,LEFT,437.3262,55:21.9,55:22.5,116,s4,ConflictResolution
CONGRUENT,LEFT,1200.000002,"('Time_Max_Exceeded', 0.2167000000099506)",0,,,LEFT,376.1306,55:23.8,55:24.4,117,s4,ConflictResolution
CONGRUENT,RIGHT,766.6666682,"('Time_Max_Exceeded', 767.1160999999529)",0,,,RIGHT,443.9802,55:25.1,55:25.8,118,s4,ConflictResolution
CONGRUENT,RIGHT,966.6666686,"('Time_Max_Exceeded', 0.37750000001324224)",0,,,RIGHT,386.4601,55:26.8,55:27.4,119,s4,ConflictResolution
INCONGRUENT,LEFT,1116.666669,"('Time_Max_Exceeded', 1117.0286999999917)",0,,,LEFT,593.4537,55:28.5,55:29.3,120,s4,ConflictResolution
INCONGRUENT,RIGHT,1366.666669,"('Time_Max_Exceeded', 1367.0501999999942)",0,,,RIGHT,482.216,55:30.7,55:31.4,121,s4,ConflictResolution
INCONGRUENT,LEFT,1300.000003,"('Time_Max_Exceeded', 1300.3337999999758)",0,,,LEFT,498.3999,55:32.7,55:33.4,122,s4,ConflictResolution
INCONGRUENT,LEFT,566.6666678,"('Time_Max_Exceeded', 567.0441999999412)",0,,,LEFT,704.0939,55:34.0,55:34.9,123,s4,ConflictResolution
INCONGRUENT,LEFT,650.0000013,"('Time_Max_Exceeded', 653.5836000000472)",0,,,LEFT,496.9844,55:35.6,55:36.3,124,s4,ConflictResolution
INCONGRUENT,LEFT,1416.66667,"('Time_Max_Exceeded', 1416.9891000000234)",-0.961,,,LEFT,506.8625,55:37.8,55:38.5,125,s4,ConflictResolution
CONGRUENT,RIGHT,1383.333336,"('Time_Max_Exceeded', 1383.631199999968)",0,,,RIGHT,499.8096,55:39.9,55:40.6,126,s4,ConflictResolution
INCONGRUENT,LEFT,866.6666684,"('Time_Max_Exceeded', 866.8146999999635)",0,,,LEFT,698.5342,55:41.5,55:42.4,127,s4,ConflictResolution
INCONGRUENT,RIGHT,1250.000003,"('Time_Max_Exceeded', 1250.244500000008)",0,,,RIGHT,655.8485,55:43.6,55:44.5,128,s4,ConflictResolution
INCONGRUENT,LEFT,1133.333336,"('Time_Max_Exceeded', 1133.6952999999994)",0,,,LEFT,458.6231,55:45.7,55:46.3,129,s4,ConflictResolution
CONGRUENT,LEFT,1483.333336,"('Time_Max_Exceeded', 0.19859999997606792)",0,,,LEFT,446.9477,55:47.8,55:48.5,130,s4,ConflictResolution
CONGRUENT,LEFT,1333.333336,"('Time_Max_Exceeded', 1333.6759999999686)",0,,,LEFT,506.6607,55:49.9,55:50.6,131,s4,ConflictResolution
CONGRUENT,LEFT,533.3333344,"('Time_Max_Exceeded', 533.6637999999994)",0,,,LEFT,587.7881,55:51.1,55:51.9,132,s4,ConflictResolution
CONGRUENT,LEFT,1083.333336,"('Time_Max_Exceeded', 1083.6108999999396)",0,,,LEFT,395.4787,55:53.0,55:53.6,133,s4,ConflictResolution
CONGRUENT,RIGHT,1133.333336,"('Time_Max_Exceeded', 0.6820999999490596)",0,,,RIGHT,454.7913,55:54.8,55:55.5,134,s4,ConflictResolution
CONGRUENT,RIGHT,866.6666684,"('Time_Max_Exceeded', 867.0002999999724)",0,,,RIGHT,510.1983,55:56.3,55:57.1,135,s4,ConflictResolution
INCONGRUENT,RIGHT,1200.000002,"('Time_Max_Exceeded', 1200.3325000000586)",0,,,RIGHT,745.318,55:58.3,55:59.2,136,s4,ConflictResolution
INCONGRUENT,LEFT,1050.000002,"('Time_Max_Exceeded', 1050.3117000000657)",0,,,LEFT,493.3615,56:00.3,56:01.0,137,s4,ConflictResolution
CONGRUENT,LEFT,1183.333336,"('Time_Max_Exceeded', 1183.614900000066)",0,,,LEFT,417.298,56:02.2,56:02.8,138,s4,ConflictResolution
CONGRUENT,RIGHT,783.3333349,"('Time_Max_Exceeded', 783.6412000000337)",0,,,RIGHT,420.6974,56:03.7,56:04.3,139,s4,ConflictResolution
CONGRUENT,LEFT,800.0000016,"('Time_Max_Exceeded', 800.3336000000445)",0,,,LEFT,401.4156,56:05.1,56:05.7,140,s4,ConflictResolution
INCONGRUENT,LEFT,850.0000017,"('Time_Max_Exceeded', 850.3160000000207)",0,,,LEFT,664.2124,56:06.6,56:07.5,141,s4,ConflictResolution
CONGRUENT,LEFT,1050.000002,"('Time_Max_Exceeded', 1050.2415000000838)",0,,,LEFT,413.6929,56:08.5,56:09.2,142,s4,ConflictResolution
INCONGRUENT,RIGHT,1050.000002,"('Time_Max_Exceeded', 1050.1870000000508)",0,,,RIGHT,787.3055,56:10.2,56:11.2,143,s4,ConflictResolution
INCONGRUENT,RIGHT,1466.66667,"('Time_Max_Exceeded', 1466.9857000000093)",0,,,RIGHT,497.2127,56:12.7,56:13.4,144,s4,ConflictResolution
INCONGRUENT,LEFT,533.3333344,"('Time_Max_Exceeded', 533.6621999999807)",0,,,LEFT,756.922,56:14.0,56:14.9,145,s4,ConflictResolution
INCONGRUENT,RIGHT,983.3333353,"('Time_Max_Exceeded', 0.25810000011006196)",0,,,RIGHT,450.7188,56:15.9,56:16.6,146,s4,ConflictResolution
CONGRUENT,LEFT,1500.000003,"('Time_Max_Exceeded', 1500.2797999999302)",0,,,LEFT,428.0705,56:18.1,56:18.8,147,s4,ConflictResolution
INCONGRUENT,LEFT,616.6666679,"('Time_Max_Exceeded', 616.9282000000749)",0,,,LEFT,628.9374,56:19.4,56:20.2,148,s4,ConflictResolution
INCONGRUENT,RIGHT,1066.666669,"('Time_Max_Exceeded', 0.22890000013831013)",0,,,RIGHT,490.8992,56:21.3,56:22.0,149,s4,ConflictResolution
CONGRUENT,RIGHT,533.3333344,"('Time_Max_Exceeded', 0.10219999990113138)",0,,,RIGHT,481.929,56:22.6,56:23.3,150,s4,ConflictResolution
INCONGRUENT,RIGHT,1133.333336,"('Time_Max_Exceeded', 0.26049999996757833)",0,,,RIGHT,551.1102,56:24.4,56:25.2,151,s4,ConflictResolution
INCONGRUENT,LEFT,733.3333348,"('Time_Max_Exceeded', 733.5958000001028)",0,,,LEFT,547.6826,56:25.9,56:26.7,152,s4,ConflictResolution
INCONGRUENT,RIGHT,1233.333336,"('Time_Max_Exceeded', 1233.6562000000413)",0,,,RIGHT,490.366,56:28.0,56:28.7,153,s4,ConflictResolution
CONGRUENT,RIGHT,1066.666669,"('Time_Max_Exceeded', 1066.990799999985)",0,,,RIGHT,412.7411,56:29.7,56:30.4,154,s4,ConflictResolution
INCONGRUENT,RIGHT,516.6666677,"('Time_Max_Exceeded', 516.9952999999623)",0,,,RIGHT,716.9773,56:30.9,56:31.8,155,s4,ConflictResolution
CONGRUENT,RIGHT,1183.333336,"('Time_Max_Exceeded', 1183.6397999998098)",0,,,RIGHT,391.3895,56:33.0,56:33.6,156,s4,ConflictResolution
CONGRUENT,LEFT,1016.666669,"('Time_Max_Exceeded', 1017.1602000000348)",0,,,LEFT,454.6018,56:34.7,56:35.3,157,s4,ConflictResolution
CONGRUENT,RIGHT,816.6666683,"('Time_Max_Exceeded', 817.1293999998852)",0,,,RIGHT,365.9452,56:36.2,56:36.7,158,s4,ConflictResolution
CONGRUENT,RIGHT,1200.000002,"('Time_Max_Exceeded', 1200.210499999912)",0,,,RIGHT,392.7153,56:38.0,56:38.6,159,s4,ConflictResolution
INCONGRUENT,RIGHT,850.0000017,"('Time_Max_Exceeded', 850.3673000000163)",0,,,RIGHT,580.6064,56:39.4,56:40.2,160,s4,ConflictResolution
INCONGRUENT,RIGHT,1266.666669,"('Time_Max_Exceeded', 1266.9958999999835)",0,,,RIGHT,528.9849,56:41.5,56:42.3,161,s4,ConflictResolution
CONGRUENT,LEFT,616.6666679,"('Time_Max_Exceeded', 616.9922999999926)",0,,,LEFT,495.5252,56:42.9,56:43.6,162,s4,ConflictResolution
INCONGRUENT,LEFT,666.666668,"('Time_Max_Exceeded', 666.9366999999511)",0,,,LEFT,481.5417,56:44.3,56:45.0,163,s4,ConflictResolution
CONGRUENT,RIGHT,1266.666669,"('Time_Max_Exceeded', 1266.977499999939)",0,,,RIGHT,386.7421,56:46.3,56:46.9,164,s4,ConflictResolution
INCONGRUENT,LEFT,550.0000011,"('Time_Max_Exceeded', 550.3337000000101)",0,,,LEFT,551.5355,56:47.4,56:48.2,165,s4,ConflictResolution
CONGRUENT,LEFT,1300.000003,"('Time_Max_Exceeded', 1300.685299999941)",0,,,LEFT,427.6519,56:49.5,56:50.2,166,s4,ConflictResolution
CONGRUENT,LEFT,700.0000014,"('Time_Max_Exceeded', 700.3475999999864)",0,,,LEFT,383.9445,56:50.9,56:51.5,167,s4,ConflictResolution
CONGRUENT,RIGHT,1366.666669,"('Time_Max_Exceeded', 0.051100000064252526)",0,,,RIGHT,382.4661,56:52.9,56:53.5,168,s4,ConflictResolution
CONGRUENT,RIGHT,566.6666678,"('Time_Max_Exceeded', 0.24619999999231368)",0,,,RIGHT,452.7141,56:54.0,56:54.7,169,s4,ConflictResolution
CONGRUENT,RIGHT,583.3333345,"('Time_Max_Exceeded', 0.17339999999421707)",0,,,RIGHT,297.7585,56:55.3,56:55.8,170,s4,ConflictResolution
CONGRUENT,LEFT,566.6666678,"('Time_Max_Exceeded', 0.24260000009235227)",0,,,LEFT,417.1854,56:56.4,56:57.0,171,s4,ConflictResolution
CONGRUENT,RIGHT,1283.333336,"('Time_Max_Exceeded', 1283.5990000000947)",0,,,RIGHT,415.7967,56:58.3,56:59.0,172,s4,ConflictResolution
INCONGRUENT,RIGHT,783.3333349,"('Time_Max_Exceeded', 783.599200000026)",0,,,RIGHT,516.9941,56:59.8,57:00.5,173,s4,ConflictResolution
INCONGRUENT,RIGHT,883.3333351,"('Time_Max_Exceeded', 883.6636999999428)",0,,,RIGHT,434.8349,57:01.4,57:02.0,174,s4,ConflictResolution
CONGRUENT,LEFT,1366.666669,"('Time_Max_Exceeded', 1367.7717999999004)",0,,,LEFT,416.2544,57:03.4,57:04.1,175,s4,ConflictResolution
CONGRUENT,LEFT,1100.000002,"('Time_Max_Exceeded', 1101.714900000161)",0,,,LEFT,409.1,57:05.2,57:05.8,176,s4,ConflictResolution
INCONGRUENT,LEFT,1433.333336,"('Time_Max_Exceeded', 1433.6984999999913)",0,,,LEFT,608.9752,57:07.3,57:08.1,177,s4,ConflictResolution
CONGRUENT,LEFT,1233.333336,"('Time_Max_Exceeded', 0.1403000001118926)",0,,,LEFT,478.4141,57:09.3,57:10.0,178,s4,ConflictResolution
INCONGRUENT,LEFT,1100.000002,"('Time_Max_Exceeded', 1099.2579999999634)",0,,,LEFT,532.5774,57:11.1,57:11.9,179,s4,ConflictResolution
INCONGRUENT,LEFT,1200.000002,"('Time_Max_Exceeded', 1200.3262000000632)",0,,,LEFT,471.6911,57:13.1,57:13.8,180,s4,ConflictResolution
CONGRUENT,LEFT,716.6666681,"('Time_Max_Exceeded', 717.0288000002074)",0,,,LEFT,427.5047,57:14.5,57:15.2,181,s4,ConflictResolution
INCONGRUENT,RIGHT,1433.333336,"('Time_Max_Exceeded', 1433.565499999986)",0,,,RIGHT,492.1188,57:16.6,57:17.3,182,s4,ConflictResolution
INCONGRUENT,RIGHT,750.0000015,"('Time_Max_Exceeded', 753.8314999999329)",0,,,RIGHT,479.7942,57:18.1,57:18.8,183,s4,ConflictResolution
CONGRUENT,LEFT,850.0000017,"('Time_Max_Exceeded', 851.8611000001783)",0,,,LEFT,516.8276,57:19.7,57:20.4,184,s4,ConflictResolution
CONGRUENT,LEFT,550.0000011,"('Time_Max_Exceeded', 550.2512000000479)",0,,,LEFT,443.1713,57:21.0,57:21.6,185,s4,ConflictResolution
CONGRUENT,RIGHT,1050.000002,"('Time_Max_Exceeded', 1050.3318999999465)",0,,,RIGHT,418.5391,57:22.7,57:23.3,186,s4,ConflictResolution
CONGRUENT,RIGHT,1083.333336,"('Time_Max_Exceeded', 1083.670199999915)",0,,,RIGHT,417.5444,57:24.4,57:25.0,187,s4,ConflictResolution
INCONGRUENT,RIGHT,1100.000002,"('Time_Max_Exceeded', 1100.289900000007)",0,,,RIGHT,455.7616,57:26.2,57:26.8,188,s4,ConflictResolution
CONGRUENT,RIGHT,1100.000002,"('Time_Max_Exceeded', 1100.415299999895)",0,,,RIGHT,414.2522,57:27.9,57:28.6,189,s4,ConflictResolution
CONGRUENT,LEFT,866.6666684,"('Time_Max_Exceeded', 0.6347999999434251)",0,,,LEFT,482.0207,57:29.5,57:30.1,190,s4,ConflictResolution
INCONGRUENT,LEFT,716.6666681,"('Time_Max_Exceeded', 716.9919000000391)",0,,,LEFT,552.2933,57:30.9,57:31.7,191,s4,ConflictResolution
INCONGRUENT,RIGHT,1300.000003,"('Time_Max_Exceeded', 0.2943000001778273)",0,,,RIGHT,492.4663,57:33.0,57:33.7,192,s4,ConflictResolution
INCONGRUENT,RIGHT,566.6666678,"('Time_Max_Exceeded', 566.9954999998481)",0,,,RIGHT,767.8504,57:34.3,57:35.2,193,s4,ConflictResolution
CONGRUENT,LEFT,650.0000013,"('Time_Max_Exceeded', 650.3210000000763)",0,,,LEFT,478.5653,57:35.9,57:36.6,194,s4,ConflictResolution
INCONGRUENT,RIGHT,966.6666686,"('Time_Max_Exceeded', 967.022199999974)",0,,,RIGHT,441.3706,57:37.6,57:38.2,195,s4,ConflictResolution
CONGRUENT,RIGHT,1466.66667,"('Time_Max_Exceeded', 1466.995800000177)",0,,,RIGHT,457.9201,57:39.7,57:40.4,196,s4,ConflictResolution
INCONGRUENT,RIGHT,633.3333346,"('Time_Max_Exceeded', 633.6545999999998)",0,,,RIGHT,622.2673,57:41.1,57:41.9,197,s4,ConflictResolution
CONGRUENT,LEFT,950.0000019,"('Time_Max_Exceeded', 950.3400000000966)",0,,,LEFT,516.3106,57:42.9,57:43.6,198,s4,ConflictResolution
INCONGRUENT,RIGHT,916.6666685,"('Time_Max_Exceeded', 0.130899999930989)",0,,,RIGHT,432.1142,57:44.5,57:45.2,199,s4,ConflictResolution
CONGRUENT,RIGHT,516.6666677,"('Time_Max_Exceeded', 517.2308999999586)",0,,,RIGHT,625.9685,57:45.7,57:46.5,200,s4,ConflictResolution
