Congruence,Stimulus_Side,ITI,Previous_Response,Previous_RT,Cue_Response,Cue_Response_RT,Response,RT,Trial_Time_Onset,Trial_Time_End,Trial_Order,Participant,Task
INCONGRUENT,LEFT,950.0000019,"('Time_Max_Exceeded', 0.29510000001664594)",0,,,LEFT,1481.0725,12:18.2,12:19.9,1,S2,ConflictResolution
INCONGRUENT,LEFT,1233.333336,"('Time_Max_Exceeded', 1235.9711999999945)",0,,,LEFT,577.9235,12:21.2,12:22.0,2,S2,ConflictResolution
CONGRUENT,LEFT,950.0000019,"('Time_Max_Exceeded', 950.6059999999934)",0,,,LEFT,406.957,12:23.0,12:23.6,3,S2,ConflictResolution
CONGRUENT,LEFT,1216.666669,"('Time_Max_Exceeded', 1217.1538000000055)",0,,,LEFT,522.0691,12:24.9,12:25.6,4,S2,ConflictResolution
CONGRUENT,RIGHT,816.6666683,"('Time_Max_Exceeded', 817.2994999999901)",0,,,RIGHT,474.122,12:26.5,12:27.2,5,S2,ConflictResolution
CONGRUENT,RIGHT,1266.666669,"('Time_Max_Exceeded', 1267.2053000000005)",0,,,RIGHT,364.7199,12:28.5,12:29.1,6,S2,ConflictResolution
INCONGRUENT,RIGHT,1100.000002,"('Time_Max_Exceeded', 1101.429400000029)",0,,,RIGHT,667.6747,12:30.3,12:31.1,7,S2,ConflictResolution
CONGRUENT,LEFT,850.0000017,"('Time_Max_Exceeded', 850.8844000000408)",0,,,LEFT,455.0283,12:32.0,12:32.7,8,S2,ConflictResolution
CONGRUENT,RIGHT,1383.333336,"('Time_Max_Exceeded', 1383.7647999999945)",0,,,RIGHT,460.8502,12:34.2,12:34.8,9,S2,ConflictResolution
CONGRUENT,LEFT,1033.333335,"('Time_Max_Exceeded', 1033.643100000063)",0,,,LEFT,344.1691,12:35.9,12:36.5,10,S2,ConflictResolution
CONGRUENT,LEFT,1366.666669,"('Time_Max_Exceeded', 1367.1611999999413)",0,,,LEFT,439.1562,12:37.9,12:38.5,11,S2,ConflictResolution
INCONGRUENT,LEFT,650.0000013,"('Time_Max_Exceeded', 650.4577999999128)",0,,,LEFT,575.958,12:39.2,12:40.0,12,S2,ConflictResolution
CONGRUENT,RIGHT,1350.000003,"('Time_Max_Exceeded', 1351.6749000000345)",0,,,RIGHT,398.3866,12:41.4,12:42.0,13,S2,ConflictResolution
CONGRUENT,RIGHT,983.3333353,"('Time_Max_Exceeded', 985.4146000000128)",0,,,RIGHT,389.997,12:43.1,12:43.7,14,S2,ConflictResolution
INCONGRUENT,LEFT,866.6666684,"('Time_Max_Exceeded', 867.2159000000192)",0,,,LEFT,509.6119,12:44.6,12:45.3,15,S2,ConflictResolution
CONGRUENT,LEFT,800.0000016,"('Time_Max_Exceeded', 801.0500999999977)",0,,,LEFT,401.2322,12:46.2,12:46.8,16,S2,ConflictResolution
INCONGRUENT,LEFT,566.6666678,"('Time_Max_Exceeded', 567.1317000000045)",0,,,LEFT,461.2144,12:47.4,12:48.1,17,S2,ConflictResolution
CONGRUENT,LEFT,1250.000003,"('Time_Max_Exceeded', 1250.443799999971)",0,,,LEFT,428.8819,12:49.4,12:50.0,18,S2,ConflictResolution
CONGRUENT,RIGHT,583.3333345,"('Time_Max_Exceeded', 584.0273999999681)",0,,,RIGHT,524.5765,12:50.7,12:51.4,19,S2,ConflictResolution
CONGRUENT,LEFT,650.0000013,"('Time_Max_Exceeded', 651.0722000000442)",0,,,LEFT,390.1221,12:52.1,12:52.7,20,S2,ConflictResolution
CONGRUENT,LEFT,1300.000003,"('Time_Max_Exceeded', 1304.771399999936)",0,,,LEFT,427.3747,12:54.1,12:54.7,21,S2,ConflictResolution
INCONGRUENT,LEFT,1116.666669,"('Time_Max_Exceeded', 1117.1712999999954)",0,,,LEFT,523.1129,12:55.9,12:56.7,22,S2,ConflictResolution
CONGRUENT,RIGHT,1416.66667,"('Time_Max_Exceeded', 1417.1618999999964)",0,,,RIGHT,500.1029,12:58.1,12:58.8,23,S2,ConflictResolution
INCONGRUENT,RIGHT,700.0000014,"('Time_Max_Exceeded', 701.7827999999326)",0,,,RIGHT,567.6627,12:59.6,13:00.4,24,S2,ConflictResolution
CONGRUENT,LEFT,1466.66667,"('Time_Max_Exceeded', 1467.164700000012)",0,,,LEFT,421.5398,13:01.9,13:02.5,25,S2,ConflictResolution
CONGRUENT,LEFT,1116.666669,"('Time_Max_Exceeded', 1117.2643999999536)",0,,,LEFT,378.153,13:03.7,13:04.3,26,S2,ConflictResolution
CONGRUENT,RIGHT,1450.000003,"('Time_Max_Exceeded', 1450.4903000000695)",0,,,RIGHT,393.8834,13:05.8,13:06.4,27,S2,ConflictResolution
INCONGRUENT,RIGHT,1450.000003,"('Time_Max_Exceeded', 1450.8015000000114)",0,,,RIGHT,493.4428,13:07.9,13:08.6,28,S2,ConflictResolution
INCONGRUENT,RIGHT,1183.333336,"('Time_Max_Exceeded', 1184.021199999961)",0,,,RIGHT,473.8108,13:09.9,13:10.6,29,S2,ConflictResolution
INCONGRUENT,LEFT,1200.000002,"('Time_Max_Exceeded', 1200.4698000000644)",0,,,LEFT,438.9397,13:11.8,13:12.5,30,S2,ConflictResolution
CONGRUENT,LEFT,700.0000014,"('Time_Max_Exceeded', 700.4974000000175)",0,,,LEFT,384.5959,13:13.2,13:13.8,31,S2,ConflictResolution
INCONGRUENT,RIGHT,850.0000017,"('Time_Max_Exceeded', 849.588600000061)",0,,,LEFT,393.0735,13:14.7,13:15.4,32,S2,ConflictResolution
CONGRUENT,LEFT,733.3333348,"('Time_Max_Exceeded', 734.4331999998985)",0,,,LEFT,370.5008,13:16.2,13:16.7,33,S2,ConflictResolution
INCONGRUENT,RIGHT,1266.666669,"('Time_Max_Exceeded', 1271.011700000031)",0,,,RIGHT,412.0195,13:18.1,13:18.7,34,S2,ConflictResolution
INCONGRUENT,RIGHT,1050.000002,"('Time_Max_Exceeded', 1050.442299999986)",0,,,RIGHT,504.1983,13:19.8,13:20.5,35,S2,ConflictResolution
CONGRUENT,RIGHT,516.6666677,"('Time_Max_Exceeded', 517.5451000000066)",0,,,RIGHT,534.6596,13:21.1,13:21.8,36,S2,ConflictResolution
CONGRUENT,RIGHT,1200.000002,"('Time_Max_Exceeded', 1202.2226000000273)",0,,,RIGHT,298.5397,13:23.1,13:23.6,37,S2,ConflictResolution
INCONGRUENT,RIGHT,583.3333345,"('Time_Max_Exceeded', 583.7907999999743)",0,,,RIGHT,490.8273,13:24.2,13:24.9,38,S2,ConflictResolution
CONGRUENT,RIGHT,750.0000015,"('Time_Max_Exceeded', 753.6523999999645)",0,,,RIGHT,345.1352,13:25.7,13:26.3,39,S2,ConflictResolution
CONGRUENT,RIGHT,1233.333336,"('Time_Max_Exceeded', 1233.8538000000199)",0,,,RIGHT,342.9414,13:27.6,13:28.2,40,S2,ConflictResolution
INCONGRUENT,LEFT,700.0000014,"('Time_Max_Exceeded', 700.460000000021)",0,,,LEFT,459.9494,13:28.9,13:29.6,41,S2,ConflictResolution
INCONGRUENT,RIGHT,816.6666683,"('Time_Max_Exceeded', 817.1125999999731)",0,,,RIGHT,424.7285,13:30.4,13:31.1,42,S2,ConflictResolution
CONGRUENT,RIGHT,666.666668,"('Time_Max_Exceeded', 667.1277000000373)",0,,,RIGHT,366.0361,13:31.8,13:32.4,43,S2,ConflictResolution
INCONGRUENT,RIGHT,1416.66667,"('Time_Max_Exceeded', 1417.2104000000445)",0,,,RIGHT,413.9718,13:33.8,13:34.5,44,S2,ConflictResolution
CONGRUENT,LEFT,1416.66667,"('Time_Max_Exceeded', 1417.4414000000297)",0,,,LEFT,451.7293,13:36.0,13:36.6,45,S2,ConflictResolution
INCONGRUENT,RIGHT,800.0000016,"('Time_Max_Exceeded', 800.5164000001059)",0,,,RIGHT,418.4882,13:37.5,13:38.1,46,S2,ConflictResolution
INCONGRUENT,LEFT,583.3333345,"('Time_Max_Exceeded', 584.0707000000975)",0,,,LEFT,449.7254,13:38.8,13:39.4,47,S2,ConflictResolution
INCONGRUENT,LEFT,1283.333336,"('Time_Max_Exceeded', 1283.8451000000077)",0,,,LEFT,523.1934,13:40.8,13:41.5,48,S2,ConflictResolution
INCONGRUENT,LEFT,833.333335,"('Time_Max_Exceeded', 833.8389000000461)",0,,,LEFT,444.3359,13:42.4,13:43.0,49,S2,ConflictResolution
CONGRUENT,RIGHT,1366.666669,"('Time_Max_Exceeded', 1367.8342000000612)",0,,,RIGHT,458.6024,13:44.5,13:45.1,50,S2,ConflictResolution
CONGRUENT,LEFT,533.3333344,"('Time_Max_Exceeded', 534.1247999999723)",0,,,LEFT,408.8542,13:45.7,13:46.4,51,S2,ConflictResolution
INCONGRUENT,LEFT,816.6666683,"('Time_Max_Exceeded', 817.5449999999955)",0,,,LEFT,420.7444,13:47.2,13:47.9,52,S2,ConflictResolution
INCONGRUENT,RIGHT,1000.000002,"('Time_Max_Exceeded', 1001.8338999999514)",0,,,RIGHT,467.5107,13:48.9,13:49.6,53,S2,ConflictResolution
INCONGRUENT,LEFT,1316.666669,"('Time_Max_Exceeded', 1317.344100000014)",0,,,LEFT,382.5479,13:51.0,13:51.6,54,S2,ConflictResolution
CONGRUENT,LEFT,1316.666669,"('Time_Max_Exceeded', 1317.3799999999574)",0,,,LEFT,418.0314,13:52.9,13:53.6,55,S2,ConflictResolution
INCONGRUENT,RIGHT,1083.333336,"('Time_Max_Exceeded', 1083.9363000000048)",0,,,RIGHT,444.3633,13:54.7,13:55.4,56,S2,ConflictResolution
INCONGRUENT,LEFT,1433.333336,"('Time_Max_Exceeded', 1435.735099999988)",0,,,LEFT,467.3083,13:56.9,13:57.6,57,S2,ConflictResolution
INCONGRUENT,LEFT,1083.333336,"('Time_Max_Exceeded', 1087.312900000029)",0,,,LEFT,555.5361,13:58.7,13:59.5,58,S2,ConflictResolution
CONGRUENT,RIGHT,766.6666682,"('Time_Max_Exceeded', 767.3795999999129)",0,,,RIGHT,408.7879,14:00.3,14:00.9,59,S2,ConflictResolution
CONGRUENT,LEFT,666.666668,"('Time_Max_Exceeded', 667.16729999996)",0,,,LEFT,516.0316,14:01.6,14:02.4,60,S2,ConflictResolution
INCONGRUENT,RIGHT,600.0000012,"('Time_Max_Exceeded', 601.6670000000204)",0,,,RIGHT,432.1024,14:03.0,14:03.7,61,S2,ConflictResolution
CONGRUENT,LEFT,816.6666683,"('Time_Max_Exceeded', 818.5978999999861)",0,,,LEFT,335.2835,14:04.5,14:05.1,62,S2,ConflictResolution
CONGRUENT,RIGHT,883.3333351,"('Time_Max_Exceeded', 883.8081999999758)",0,,,RIGHT,322.8788,14:06.0,14:06.6,63,S2,ConflictResolution
INCONGRUENT,RIGHT,1300.000003,"('Time_Max_Exceeded', 1300.5842999999686)",0,,,RIGHT,386.2297,14:07.9,14:08.5,64,S2,ConflictResolution
CONGRUENT,RIGHT,500.000001,"('Time_Max_Exceeded', 500.5730999999969)",0,,,RIGHT,535.0814,14:09.1,14:09.8,65,S2,ConflictResolution
INCONGRUENT,RIGHT,683.3333347,"('Time_Max_Exceeded', 683.8530999999648)",0,,,RIGHT,516.4012,14:10.5,14:11.3,66,S2,ConflictResolution
CONGRUENT,RIGHT,683.3333347,"('Time_Max_Exceeded', 683.8036999999986)",0,,,RIGHT,359.8703,14:12.0,14:12.6,67,S2,ConflictResolution
CONGRUENT,LEFT,583.3333345,"('Time_Max_Exceeded', 583.7847000000238)",0,,,LEFT,446.3998,14:13.2,14:13.9,68,S2,ConflictResolution
CONGRUENT,RIGHT,850.0000017,"('Time_Max_Exceeded', 850.5235999999741)",0,,,RIGHT,388.627,14:14.8,14:15.4,69,S2,ConflictResolution
CONGRUENT,LEFT,866.6666684,"('Time_Max_Exceeded', 867.1620000000075)",0,,,LEFT,379.6496,14:16.3,14:16.9,70,S2,ConflictResolution
INCONGRUENT,LEFT,616.6666679,"('Time_Max_Exceeded', 617.2272000000021)",0,,,LEFT,540.663,14:17.6,14:18.3,71,S2,ConflictResolution
CONGRUENT,RIGHT,1050.000002,"('Time_Max_Exceeded', 0.3034999999727006)",0,,,RIGHT,447.5353,14:19.4,14:20.1,72,S2,ConflictResolution
INCONGRUENT,RIGHT,983.3333353,"('Time_Max_Exceeded', 983.814499999994)",0,,,RIGHT,461.48,14:21.1,14:21.8,73,S2,ConflictResolution
CONGRUENT,LEFT,1283.333336,"('Time_Max_Exceeded', 1283.7875000000167)",0,,,LEFT,415.3798,14:23.2,14:23.8,74,S2,ConflictResolution
INCONGRUENT,LEFT,800.0000016,"('Time_Max_Exceeded', 800.4885999999942)",0,,,LEFT,383.6603,14:24.6,14:25.2,75,S2,ConflictResolution
CONGRUENT,RIGHT,1033.333335,"('Time_Max_Exceeded', 1037.3494000000392)",0,,,RIGHT,367.5763,14:26.3,14:26.9,76,S2,ConflictResolution
INCONGRUENT,RIGHT,766.6666682,"('Time_Max_Exceeded', 767.1204000000671)",0,,,LEFT,402.103,14:27.7,14:28.3,77,S2,ConflictResolution
INCONGRUENT,LEFT,900.0000018,"('Time_Max_Exceeded', 903.2046000002083)",0,,,LEFT,499.2617,14:29.3,14:30.0,78,S2,ConflictResolution
CONGRUENT,LEFT,550.0000011,"('Time_Max_Exceeded', 550.4780000001119)",0,,,LEFT,506.4499,14:30.6,14:31.3,79,S2,ConflictResolution
CONGRUENT,RIGHT,1083.333336,"('Time_Max_Exceeded', 1084.0269000000262)",0,,,RIGHT,377.0755,14:32.5,14:33.0,80,S2,ConflictResolution
CONGRUENT,RIGHT,1283.333336,"('Time_Max_Exceeded', 1283.828400000175)",0,,,RIGHT,377.9307,14:34.4,14:35.0,81,S2,ConflictResolution
CONGRUENT,RIGHT,700.0000014,"('Time_Max_Exceeded', 700.7570999999189)",0,,,RIGHT,374.0814,14:35.7,14:36.3,82,S2,ConflictResolution
CONGRUENT,LEFT,1150.000002,"('Time_Max_Exceeded', 1150.508899999977)",0,,,LEFT,386.1649,14:37.5,14:38.1,83,S2,ConflictResolution
CONGRUENT,RIGHT,1483.333336,"('Time_Max_Exceeded', 1484.083400000145)",0,,,RIGHT,374.738,14:39.7,14:40.3,84,S2,ConflictResolution
CONGRUENT,RIGHT,900.0000018,"('Time_Max_Exceeded', 900.4843000000164)",0,,,RIGHT,365.531,14:41.2,14:41.8,85,S2,ConflictResolution
CONGRUENT,RIGHT,1300.000003,"('Time_Max_Exceeded', 1300.4895000001397)",0,,,RIGHT,329.9136,14:43.2,14:43.7,86,S2,ConflictResolution
INCONGRUENT,LEFT,1500.000003,"('Time_Max_Exceeded', 1500.4707000000508)",-0.162,,,RIGHT,299.2371,14:45.3,14:45.8,87,S2,ConflictResolution
INCONGRUENT,RIGHT,750.0000015,"('Time_Max_Exceeded', 750.6146000000626)",0,,,RIGHT,528.5452,14:46.6,14:47.3,88,S2,ConflictResolution
INCONGRUENT,LEFT,1183.333336,"('Time_Max_Exceeded', 1183.783000000176)",0,,,LEFT,448.6309,14:48.6,14:49.2,89,S2,ConflictResolution
INCONGRUENT,RIGHT,900.0000018,"('Time_Max_Exceeded', 901.0389999998552)",0,,,RIGHT,432.691,14:50.2,14:50.8,90,S2,ConflictResolution
CONGRUENT,RIGHT,1066.666669,"('Time_Max_Exceeded', 0.35890000003746536)",0,,,RIGHT,400.6791,14:51.9,14:52.6,91,S2,ConflictResolution
INCONGRUENT,LEFT,1050.000002,"('Time_Max_Exceeded', 1050.4547000000457)",0,,,LEFT,485.405,14:53.7,14:54.4,92,S2,ConflictResolution
CONGRUENT,RIGHT,633.3333346,"('Time_Max_Exceeded', 633.86689999993)",0,,,RIGHT,409.4924,14:55.0,14:55.7,93,S2,ConflictResolution
INCONGRUENT,LEFT,966.6666686,"('Time_Max_Exceeded', 967.1498000000156)",0,,,LEFT,444.4131,14:56.7,14:57.4,94,S2,ConflictResolution
CONGRUENT,RIGHT,1183.333336,"('Time_Max_Exceeded', 1184.0071999999964)",0,,,RIGHT,362.1724,14:58.6,14:59.2,95,S2,ConflictResolution
CONGRUENT,LEFT,966.6666686,"('Time_Max_Exceeded', 967.2189999998864)",0,,,LEFT,371.1552,15:00.2,15:00.8,96,S2,ConflictResolution
CONGRUENT,RIGHT,966.6666686,"('Time_Max_Exceeded', 967.187499999909)",0,,,RIGHT,367.9174,15:01.8,15:02.4,97,S2,ConflictResolution
CONGRUENT,RIGHT,800.0000016,"('Time_Max_Exceeded', 800.8082999999715)",0,,,RIGHT,342.4792,15:03.2,15:03.8,98,S2,ConflictResolution
CONGRUENT,LEFT,1100.000002,"('Time_Max_Exceeded', 1100.5113999999594)",0,,,LEFT,356.017,15:04.9,15:05.5,99,S2,ConflictResolution
INCONGRUENT,LEFT,1216.666669,"('Time_Max_Exceeded', 1217.1496000000843)",0,,,LEFT,407.9997,15:06.8,15:07.4,100,S2,ConflictResolution
CONGRUENT,LEFT,1133.333336,"('Time_Max_Exceeded', 1134.0256000000863)",0,,,LEFT,408.2957,15:08.6,15:09.2,101,S2,ConflictResolution
INCONGRUENT,LEFT,733.3333348,"('Time_Max_Exceeded', 733.8814000002003)",0,,,LEFT,472.8874,15:10.0,15:10.7,102,S2,ConflictResolution
INCONGRUENT,LEFT,1000.000002,"('Time_Max_Exceeded', 1000.5596999999398)",0,,,LEFT,376.9534,15:11.7,15:12.3,103,S2,ConflictResolution
INCONGRUENT,LEFT,550.0000011,"('Time_Max_Exceeded', 551.0311000000456)",0,,,LEFT,479.3149,15:12.9,15:13.6,104,S2,ConflictResolution
CONGRUENT,LEFT,1200.000002,"('Time_Max_Exceeded', 1202.9344000000037)",0,,,LEFT,303.0532,15:14.9,15:15.4,105,S2,ConflictResolution
INCONGRUENT,RIGHT,1483.333336,"('Time_Max_Exceeded', 1484.2132999999649)",0,,,RIGHT,445.8848,15:16.9,15:17.6,106,S2,ConflictResolution
CONGRUENT,LEFT,716.6666681,"('Time_Max_Exceeded', 717.164799999864)",0,,,LEFT,401.4408,15:18.4,15:19.0,107,S2,ConflictResolution
CONGRUENT,LEFT,1433.333336,"('Time_Max_Exceeded', 1433.804499999951)",0,,,LEFT,349.6167,15:20.5,15:21.1,108,S2,ConflictResolution
CONGRUENT,RIGHT,1466.66667,"('Time_Max_Exceeded', 1467.4211000001378)",0,,,RIGHT,395.8401,15:22.6,15:23.2,109,S2,ConflictResolution
INCONGRUENT,LEFT,766.6666682,"('Time_Max_Exceeded', 767.3575000001165)",0,,,LEFT,562.442,15:24.0,15:24.8,110,S2,ConflictResolution
INCONGRUENT,RIGHT,500.000001,"('Time_Max_Exceeded', 500.6932000001143)",0,,,RIGHT,575.5046,15:25.4,15:26.2,111,S2,ConflictResolution
CONGRUENT,RIGHT,1333.333336,"('Time_Max_Exceeded', 1333.8160000000698)",0,,,RIGHT,441.5104,15:27.5,15:28.2,112,S2,ConflictResolution
INCONGRUENT,LEFT,1466.66667,"('Time_Max_Exceeded', 1467.1364999999241)",0,,,LEFT,468.3046,15:29.7,15:30.4,113,S2,ConflictResolution
CONGRUENT,RIGHT,916.6666685,"('Time_Max_Exceeded', 917.6486999999725)",0,,,RIGHT,339.8099,15:31.4,15:31.9,114,S2,ConflictResolution
INCONGRUENT,LEFT,1333.333336,"('Time_Max_Exceeded', 1338.811699999951)",0,,,LEFT,449.0142,15:33.3,15:34.0,115,S2,ConflictResolution
CONGRUENT,LEFT,616.6666679,"('Time_Max_Exceeded', 618.7073999999484)",0,,,LEFT,416.4523,15:34.7,15:35.3,116,S2,ConflictResolution
INCONGRUENT,LEFT,1483.333336,"('Time_Max_Exceeded', 1483.7979999999789)",0,,,LEFT,354.022,15:36.8,15:37.4,117,S2,ConflictResolution
INCONGRUENT,LEFT,1366.666669,"('Time_Max_Exceeded', 1367.2112000001562)",0,,,LEFT,393.4583,15:38.8,15:39.4,118,S2,ConflictResolution
CONGRUENT,RIGHT,716.6666681,"('Time_Max_Exceeded', 717.1132000000853)",0,,,RIGHT,456.5163,15:40.2,15:40.9,119,S2,ConflictResolution
INCONGRUENT,RIGHT,966.6666686,"('Time_Max_Exceeded', 967.1837000000778)",0,,,RIGHT,343.5693,15:41.9,15:42.4,120,S2,ConflictResolution
CONGRUENT,RIGHT,1000.000002,"('Time_Max_Exceeded', 1000.5172999999559)",0,,,RIGHT,377.9435,15:43.5,15:44.1,121,S2,ConflictResolution
CONGRUENT,RIGHT,533.3333344,"('Time_Max_Exceeded', 534.983499999953)",0,,,RIGHT,275.3288,15:44.7,15:45.2,122,S2,ConflictResolution
INCONGRUENT,RIGHT,1366.666669,"('Time_Max_Exceeded', 1367.1344000001682)",0,,,RIGHT,499.2317,15:46.6,15:47.3,123,S2,ConflictResolution
INCONGRUENT,LEFT,1416.66667,"('Time_Max_Exceeded', 1419.2390000000614)",0,,,LEFT,497.6328,15:48.8,15:49.5,124,S2,ConflictResolution
INCONGRUENT,RIGHT,1466.66667,"('Time_Max_Exceeded', 1467.1292000000449)",0,,,RIGHT,501.1858,15:51.0,15:51.7,125,S2,ConflictResolution
CONGRUENT,RIGHT,783.3333349,"('Time_Max_Exceeded', 783.7926000001971)",0,,,RIGHT,411.6782,15:52.5,15:53.2,126,S2,ConflictResolution
INCONGRUENT,LEFT,850.0000017,"('Time_Max_Exceeded', 850.5161000000498)",0,,,LEFT,439.8866,15:54.1,15:54.7,127,S2,ConflictResolution
CONGRUENT,LEFT,750.0000015,"('Time_Max_Exceeded', 750.5039000000124)",0,,,LEFT,396.6812,15:55.5,15:56.1,128,S2,ConflictResolution
INCONGRUENT,RIGHT,616.6666679,"('Time_Max_Exceeded', 617.2781000000214)",0,,,RIGHT,428.5794,15:56.8,15:57.4,129,S2,ConflictResolution
CONGRUENT,RIGHT,1250.000003,"('Time_Max_Exceeded', 1250.4762000000937)",0,,,RIGHT,407.7432,15:58.7,15:59.4,130,S2,ConflictResolution
CONGRUENT,LEFT,1233.333336,"('Time_Max_Exceeded', 1237.282499999992)",0,,,LEFT,376.9672,16:00.6,16:01.2,131,S2,ConflictResolution
CONGRUENT,LEFT,1083.333336,"('Time_Max_Exceeded', 1084.2924999999468)",0,,,LEFT,380.7755,16:02.4,16:03.0,132,S2,ConflictResolution
CONGRUENT,LEFT,516.6666677,"('Time_Max_Exceeded', 517.1638000001622)",0,,,LEFT,394.3528,16:03.5,16:04.2,133,S2,ConflictResolution
INCONGRUENT,LEFT,1016.666669,"('Time_Max_Exceeded', 1017.1408999999585)",0,,,RIGHT,367.2612,16:05.2,16:05.8,134,S2,ConflictResolution
INCONGRUENT,LEFT,916.6666685,"('Time_Max_Exceeded', 902.0821999999953)",0,,,LEFT,430.6545,16:06.8,16:07.4,135,S2,ConflictResolution
CONGRUENT,RIGHT,1100.000002,"('Time_Max_Exceeded', 1100.5007999999634)",0,,,RIGHT,400.9259,16:08.6,16:09.2,136,S2,ConflictResolution
CONGRUENT,LEFT,1000.000002,"('Time_Max_Exceeded', 1000.7344000000558)",0,,,LEFT,371.2219,16:10.2,16:10.8,137,S2,ConflictResolution
CONGRUENT,RIGHT,616.6666679,"('Time_Max_Exceeded', 617.5025000000005)",0,,,RIGHT,437.2394,16:11.5,16:12.1,138,S2,ConflictResolution
INCONGRUENT,RIGHT,633.3333346,"('Time_Max_Exceeded', 633.802100000139)",0,,,RIGHT,354.1784,16:12.8,16:13.4,139,S2,ConflictResolution
CONGRUENT,LEFT,1050.000002,"('Time_Max_Exceeded', 1052.3306000000048)",0,,,LEFT,346.1476,16:14.5,16:15.1,140,S2,ConflictResolution
INCONGRUENT,RIGHT,1233.333336,"('Time_Max_Exceeded', 1233.800599999995)",0,,,RIGHT,423.0336,16:16.3,16:17.0,141,S2,ConflictResolution
INCONGRUENT,LEFT,1383.333336,"('Time_Max_Exceeded', 1383.8626999997814)",0,,,LEFT,405.9239,16:18.4,16:19.0,142,S2,ConflictResolution
INCONGRUENT,RIGHT,1200.000002,"('Time_Max_Exceeded', 1200.535200000104)",0,,,RIGHT,636.2396,16:20.3,16:21.1,143,S2,ConflictResolution
INCONGRUENT,RIGHT,1383.333336,"('Time_Max_Exceeded', 1383.8657000001149)",0,,,LEFT,327.4818,16:22.6,16:23.1,144,S2,ConflictResolution
CONGRUENT,LEFT,1333.333336,"('Time_Max_Exceeded', 1333.961600000066)",0,,,LEFT,392.5975,16:24.5,16:25.1,145,S2,ConflictResolution
INCONGRUENT,RIGHT,516.6666677,"('Time_Max_Exceeded', 517.1534000000975)",0,,,RIGHT,477.3475,16:25.7,16:26.4,146,S2,ConflictResolution
INCONGRUENT,RIGHT,666.666668,"('Time_Max_Exceeded', 667.1980999999505)",0,,,RIGHT,493.0819,16:27.1,16:27.8,147,S2,ConflictResolution
INCONGRUENT,RIGHT,1166.666669,"('Time_Max_Exceeded', 1167.2060000000783)",0,,,RIGHT,385.2188,16:29.0,16:29.6,148,S2,ConflictResolution
INCONGRUENT,RIGHT,883.3333351,"('Time_Max_Exceeded', 883.8233999999829)",0,,,RIGHT,400.6764,16:30.6,16:31.2,149,S2,ConflictResolution
INCONGRUENT,LEFT,1150.000002,"('Time_Max_Exceeded', 1150.7358999999724)",0,,,LEFT,462.4283,16:32.4,16:33.1,150,S2,ConflictResolution
INCONGRUENT,LEFT,750.0000015,"('Time_Max_Exceeded', 750.4867000000104)",0,,,LEFT,455.1501,16:33.9,16:34.6,151,S2,ConflictResolution
CONGRUENT,LEFT,900.0000018,"('Time_Max_Exceeded', 902.1013999999923)",0,,,LEFT,437.4597,16:35.5,16:36.2,152,S2,ConflictResolution
INCONGRUENT,LEFT,516.6666677,"('Time_Max_Exceeded', 517.1675999999934)",0,,,LEFT,445.5748,16:36.7,16:37.4,153,S2,ConflictResolution
INCONGRUENT,RIGHT,1250.000003,"('Time_Max_Exceeded', 1250.5103999999392)",0,,,RIGHT,488.2706,16:38.7,16:39.4,154,S2,ConflictResolution
INCONGRUENT,LEFT,1300.000003,"('Time_Max_Exceeded', 1300.4733000000215)",0,,,LEFT,388.453,16:40.8,16:41.4,155,S2,ConflictResolution
CONGRUENT,RIGHT,1150.000002,"('Time_Max_Exceeded', 1150.7409000000735)",0,,,RIGHT,485.5037,16:42.6,16:43.3,156,S2,ConflictResolution
CONGRUENT,LEFT,1400.000003,"('Time_Max_Exceeded', 1400.4873999999745)",0,,,LEFT,417.2376,16:44.7,16:45.4,157,S2,ConflictResolution
INCONGRUENT,LEFT,1400.000003,"('Time_Max_Exceeded', 1400.6454999998823)",0,,,LEFT,469.2219,16:46.8,16:47.5,158,S2,ConflictResolution
INCONGRUENT,LEFT,1033.333335,"('Time_Max_Exceeded', 1035.0599000000784)",0,,,LEFT,499.5404,16:48.6,16:49.3,159,S2,ConflictResolution
INCONGRUENT,RIGHT,1133.333336,"('Time_Max_Exceeded', 1133.8358999998945)",0,,,RIGHT,472.7813,16:50.5,16:51.2,160,S2,ConflictResolution
INCONGRUENT,LEFT,1250.000003,"('Time_Max_Exceeded', 1250.5208999998558)",0,,,LEFT,436.8242,16:52.5,16:53.1,161,S2,ConflictResolution
CONGRUENT,RIGHT,1166.666669,"('Time_Max_Exceeded', 1167.1770000000379)",0,,,RIGHT,568.4329,16:54.4,16:55.1,162,S2,ConflictResolution
CONGRUENT,LEFT,833.333335,"('Time_Max_Exceeded', 833.8674999999967)",0,,,LEFT,406.9239,16:56.0,16:56.7,163,S2,ConflictResolution
CONGRUENT,LEFT,566.6666678,"('Time_Max_Exceeded', 567.3443000000589)",0,,,LEFT,390.6916,16:57.3,16:57.9,164,S2,ConflictResolution
INCONGRUENT,LEFT,933.3333352,"('Time_Max_Exceeded', 933.8446000001568)",0,,,LEFT,378.0248,16:58.9,16:59.5,165,S2,ConflictResolution
INCONGRUENT,RIGHT,866.6666684,"('Time_Max_Exceeded', 867.4630999998953)",0,,,LEFT,397.442,17:00.4,17:01.0,166,S2,ConflictResolution
INCONGRUENT,RIGHT,1033.333335,"('Time_Max_Exceeded', 1033.9621000000534)",0,,,RIGHT,408.402,17:02.1,17:02.7,167,S2,ConflictResolution
CONGRUENT,RIGHT,866.6666684,"('Time_Max_Exceeded', 867.1899000000849)",0,,,RIGHT,420.6772,17:03.7,17:04.3,168,S2,ConflictResolution
CONGRUENT,RIGHT,600.0000012,"('Time_Max_Exceeded', 600.4622000000381)",0,,,RIGHT,341.8712,17:04.9,17:05.5,169,S2,ConflictResolution
INCONGRUENT,RIGHT,783.3333349,"('Time_Max_Exceeded', 783.746100000144)",0,,,RIGHT,472.2347,17:06.3,17:07.0,170,S2,ConflictResolution
INCONGRUENT,RIGHT,1433.333336,"('Time_Max_Exceeded', 1434.1810000000805)",0,,,RIGHT,416.9802,17:08.5,17:09.1,171,S2,ConflictResolution
CONGRUENT,RIGHT,566.6666678,"('Time_Max_Exceeded', 567.170600000054)",0,,,RIGHT,389.0013,17:09.8,17:10.4,172,S2,ConflictResolution
CONGRUENT,LEFT,633.3333346,"('Time_Max_Exceeded', 633.8550000000396)",0,,,LEFT,421.4915,17:11.1,17:11.7,173,S2,ConflictResolution
INCONGRUENT,LEFT,1100.000002,"('Time_Max_Exceeded', 1102.288499999986)",0,,,LEFT,476.505,17:12.8,17:13.5,174,S2,ConflictResolution
CONGRUENT,LEFT,1483.333336,"('Time_Max_Exceeded', 1483.859799999891)",0,,,LEFT,408.1646,17:15.1,17:15.7,175,S2,ConflictResolution
CONGRUENT,LEFT,1016.666669,"('Time_Max_Exceeded', 1017.1828000000005)",0,,,LEFT,356.2684,17:16.8,17:17.3,176,S2,ConflictResolution
CONGRUENT,LEFT,1500.000003,"('Time_Max_Exceeded', 1500.4805999999462)",0,,,LEFT,367.4304,17:18.9,17:19.5,177,S2,ConflictResolution
INCONGRUENT,RIGHT,533.3333344,"('Time_Max_Exceeded', 533.8217999999415)",0,,,RIGHT,518.9701,17:20.1,17:20.8,178,S2,ConflictResolution
INCONGRUENT,RIGHT,950.0000019,"('Time_Max_Exceeded', 950.4824999999073)",0,,,RIGHT,423.5528,17:21.8,17:22.5,179,S2,ConflictResolution
INCONGRUENT,LEFT,533.3333344,"('Time_Max_Exceeded', 534.6644000001106)",0,,,LEFT,476.7052,17:23.0,17:23.7,180,S2,ConflictResolution
CONGRUENT,LEFT,766.6666682,"('Time_Max_Exceeded', 768.7925999998697)",0,,,LEFT,406.9005,17:24.6,17:25.2,181,S2,ConflictResolution
INCONGRUENT,LEFT,633.3333346,"('Time_Max_Exceeded', 633.8258999999198)",0,,,LEFT,446.7687,17:25.9,17:26.6,182,S2,ConflictResolution
INCONGRUENT,RIGHT,566.6666678,"('Time_Max_Exceeded', 567.1477999999297)",0,,,RIGHT,567.2879,17:27.2,17:28.0,183,S2,ConflictResolution
INCONGRUENT,RIGHT,1350.000003,"('Time_Max_Exceeded', 1350.4812999999558)",0,,,RIGHT,455.2425,17:29.4,17:30.0,184,S2,ConflictResolution
CONGRUENT,RIGHT,950.0000019,"('Time_Max_Exceeded', 950.4672999999002)",0,,,RIGHT,379.9046,17:31.0,17:31.6,185,S2,ConflictResolution
CONGRUENT,LEFT,1383.333336,"('Time_Max_Exceeded', 1383.9908999998443)",0,,,LEFT,395.9286,17:33.1,17:33.7,186,S2,ConflictResolution
INCONGRUENT,LEFT,666.666668,"('Time_Max_Exceeded', 667.2650000000431)",0,,,LEFT,481.6295,17:34.4,17:35.1,187,S2,ConflictResolution
INCONGRUENT,RIGHT,716.6666681,"('Time_Max_Exceeded', 719.4342000000233)",0,,,RIGHT,455.7823,17:35.9,17:36.6,188,S2,ConflictResolution
INCONGRUENT,RIGHT,1150.000002,"('Time_Max_Exceeded', 1150.530099999969)",0,,,RIGHT,391.5535,17:37.8,17:38.4,189,S2,ConflictResolution
INCONGRUENT,RIGHT,1283.333336,"('Time_Max_Exceeded', 1283.8514000000032)",0,,,RIGHT,394.0206,17:39.7,17:40.3,190,S2,ConflictResolution
CONGRUENT,RIGHT,1133.333336,"('Time_Max_Exceeded', 1133.8084999999865)",0,,,RIGHT,396.6166,17:41.5,17:42.1,191,S2,ConflictResolution
INCONGRUENT,LEFT,716.6666681,"('Time_Max_Exceeded', 717.1289000000343)",0,,,RIGHT,394.8032,17:42.9,17:43.5,192,S2,ConflictResolution
INCONGRUENT,LEFT,1133.333336,"('Time_Max_Exceeded', 1133.9712000001327)",0,,,LEFT,654.5812,17:44.7,17:45.5,193,S2,ConflictResolution
CONGRUENT,LEFT,1183.333336,"('Time_Max_Exceeded', 1183.7956000001668)",0,,,LEFT,405.9099,17:46.8,17:47.4,194,S2,ConflictResolution
CONGRUENT,LEFT,916.6666685,"('Time_Max_Exceeded', 917.1782999999323)",0,,,LEFT,399.7182,17:48.3,17:49.0,195,S2,ConflictResolution
CONGRUENT,LEFT,933.3333352,"('Time_Max_Exceeded', 933.8302000001022)",0,,,LEFT,454.5475,17:49.9,17:50.6,196,S2,ConflictResolution
CONGRUENT,RIGHT,1433.333336,"('Time_Max_Exceeded', 1437.494900000047)",0,,,RIGHT,625.3318,17:52.1,17:53.0,197,S2,ConflictResolution
INCONGRUENT,RIGHT,1333.333336,"('Time_Max_Exceeded', 1333.7953000000198)",0,,,RIGHT,422.8864,17:54.3,17:55.0,198,S2,ConflictResolution
INCONGRUENT,RIGHT,1066.666669,"('Time_Max_Exceeded', 1067.4921000002087)",0,,,RIGHT,419.7721,17:56.1,17:56.7,199,S2,ConflictResolution
INCONGRUENT,RIGHT,916.6666685,"('Time_Max_Exceeded', 917.4356999999418)",0,,,RIGHT,426.174,17:57.7,17:58.3,200,S2,ConflictResolution
