Congruence,Stimulus_Side,ITI,Previous_Response,Previous_RT,Cue_Response,Cue_Response_RT,Response,RT,Trial_Time_Onset,Trial_Time_End,Trial_Order,Duration,Participant,Task
CONGRUENT,RIGHT,1416.6666695000001,,,,,RIGHT,1259.1092999999773,2019-10-31 16:26:36.339439,2019-10-31 16:26:37.807484,1,6.53653955,s3,ConflictResolution
INCONGRUENT,RIGHT,766.6666682,,,,,Time_Max_Exceeded,1500.0687000000426,2019-10-31 16:26:38.595128,2019-10-31 16:26:40.095894,2,6.53653955,s3,ConflictResolution
CONGRUENT,RIGHT,900.0000018000001,,,,,RIGHT,574.835099999973,2019-10-31 16:26:41.016053,2019-10-31 16:26:41.798742,3,6.53653955,s3,ConflictResolution
INCONGRUENT,LEFT,1250.0000025,,,,,LEFT,609.4730999999456,2019-10-31 16:26:43.078991,2019-10-31 16:26:43.896482,4,6.53653955,s3,ConflictResolution
CONGRUENT,LEFT,616.6666679,,,,,LEFT,819.5967000000337,2019-10-31 16:26:44.541523,2019-10-31 16:26:45.569429,5,6.53653955,s3,ConflictResolution
CONGRUENT,RIGHT,716.6666681,,,,,RIGHT,497.7967999999464,2019-10-31 16:26:46.315192,2019-10-31 16:26:47.021223,6,6.53653955,s3,ConflictResolution
INCONGRUENT,LEFT,1300.0000026,,,,,LEFT,519.2080000000487,2019-10-31 16:26:48.352687,2019-10-31 16:26:49.079784,7,6.53653955,s3,ConflictResolution
CONGRUENT,LEFT,700.0000014,,,,,LEFT,451.81800000000294,2019-10-31 16:26:49.808539,2019-10-31 16:26:50.469134,8,6.53653955,s3,ConflictResolution
CONGRUENT,LEFT,1400.0000028,,,,,LEFT,414.9625999999671,2019-10-31 16:26:51.899248,2019-10-31 16:26:52.521923,9,6.53653955,s3,ConflictResolution
INCONGRUENT,RIGHT,516.6666677000001,,,,,RIGHT,529.5595000000048,2019-10-31 16:26:53.066947,2019-10-31 16:26:53.805445,10,6.53653955,s3,ConflictResolution
CONGRUENT,RIGHT,1483.3333363,,,,,RIGHT,705.7585000000017,2019-10-31 16:26:55.315740,2019-10-31 16:26:56.230318,11,6.53653955,s3,ConflictResolution
INCONGRUENT,RIGHT,616.6666679,,,,,RIGHT,975.4345999999714,2019-10-31 16:26:56.867338,2019-10-31 16:26:58.051409,12,6.53653955,s3,ConflictResolution
INCONGRUENT,LEFT,1100.0000022,,,,,LEFT,784.2560999999932,2019-10-31 16:26:59.178722,2019-10-31 16:27:00.171330,13,6.53653955,s3,ConflictResolution
INCONGRUENT,RIGHT,666.6666680000001,,,,,RIGHT,508.3013999999366,2019-10-31 16:27:00.861351,2019-10-31 16:27:01.576700,14,6.53653955,s3,ConflictResolution
CONGRUENT,LEFT,566.6666678,,,,,LEFT,523.0953000000227,2019-10-31 16:27:02.163792,2019-10-31 16:27:02.895114,15,6.53653955,s3,ConflictResolution
CONGRUENT,RIGHT,766.6666682,,,,,RIGHT,404.1936999999507,2019-10-31 16:27:03.691263,2019-10-31 16:27:04.302784,16,6.53653955,s3,ConflictResolution
INCONGRUENT,LEFT,866.6666684,,,,,LEFT,449.3432000000439,2019-10-31 16:27:05.196094,2019-10-31 16:27:05.852853,17,6.53653955,s3,ConflictResolution
INCONGRUENT,RIGHT,1033.3333354000001,,,,,RIGHT,430.7397000000037,2019-10-31 16:27:06.917134,2019-10-31 16:27:07.554678,18,6.53653955,s3,ConflictResolution
INCONGRUENT,RIGHT,1066.6666688,,,,,LEFT,379.20169999995323,2019-10-31 16:27:08.640789,2019-10-31 16:27:09.227473,19,6.53653955,s3,ConflictResolution
INCONGRUENT,LEFT,916.6666685,,,,,LEFT,586.1440999999559,2019-10-31 16:27:10.172711,2019-10-31 16:27:10.967110,20,6.53653955,s3,ConflictResolution
INCONGRUENT,LEFT,1383.3333361,,,,,LEFT,569.8846999999887,2019-10-31 16:27:12.379480,2019-10-31 16:27:13.157100,21,6.53653955,s3,ConflictResolution
INCONGRUENT,LEFT,1466.6666696,,,,,LEFT,606.6053999999212,2019-10-31 16:27:14.653000,2019-10-31 16:27:15.467127,22,6.53653955,s3,ConflictResolution
INCONGRUENT,RIGHT,1300.0000026,,,,,RIGHT,478.5534000000098,2019-10-31 16:27:16.797126,2019-10-31 16:27:17.483220,23,6.53653955,s3,ConflictResolution
INCONGRUENT,RIGHT,1133.3333356,,,,,RIGHT,564.1442999999526,2019-10-31 16:27:18.645463,2019-10-31 16:27:19.417885,24,6.53653955,s3,ConflictResolution
INCONGRUENT,RIGHT,1233.3333358,,,,,RIGHT,539.7570999999743,2019-10-31 16:27:20.671384,2019-10-31 16:27:21.419275,25,6.53653955,s3,ConflictResolution
INCONGRUENT,LEFT,950.0000019,,,,,LEFT,521.9608000001017,2019-10-31 16:27:22.397110,2019-10-31 16:27:23.127461,26,6.53653955,s3,ConflictResolution
CONGRUENT,RIGHT,1300.0000026,,,,,RIGHT,415.4896000000008,2019-10-31 16:27:24.458277,2019-10-31 16:27:25.081990,27,6.53653955,s3,ConflictResolution
CONGRUENT,RIGHT,1283.3333359,,,,,RIGHT,607.9623999999058,2019-10-31 16:27:26.393483,2019-10-31 16:27:27.209288,28,6.53653955,s3,ConflictResolution
CONGRUENT,RIGHT,1100.0000022,,,,,RIGHT,371.8853999999965,2019-10-31 16:27:28.338928,2019-10-31 16:27:28.918710,29,6.53653955,s3,ConflictResolution
INCONGRUENT,RIGHT,1183.3333357000001,,,,,LEFT,418.08960000003026,2019-10-31 16:27:30.131873,2019-10-31 16:27:30.756801,30,6.53653955,s3,ConflictResolution
INCONGRUENT,RIGHT,1200.0000024,,,,,RIGHT,601.2054999999918,2019-10-31 16:27:31.984959,2019-10-31 16:27:32.795077,31,6.53653955,s3,ConflictResolution
INCONGRUENT,RIGHT,583.3333345,,,,,RIGHT,619.1761000000042,2019-10-31 16:27:33.407391,2019-10-31 16:27:34.234480,32,6.53653955,s3,ConflictResolution
INCONGRUENT,LEFT,550.0000011,,,,,LEFT,666.1894000000075,2019-10-31 16:27:34.813937,2019-10-31 16:27:35.687845,33,6.53653955,s3,ConflictResolution
INCONGRUENT,RIGHT,1483.3333363,,,,,RIGHT,536.0336999999618,2019-10-31 16:27:37.202589,2019-10-31 16:27:37.945514,34,6.53653955,s3,ConflictResolution
CONGRUENT,RIGHT,1350.0000027,,,,,RIGHT,636.9447999999238,2019-10-31 16:27:39.325347,2019-10-31 16:27:40.170882,35,6.53653955,s3,ConflictResolution
CONGRUENT,RIGHT,816.6666683,,,,,RIGHT,578.7258000000293,2019-10-31 16:27:41.017972,2019-10-31 16:27:41.804265,36,6.53653955,s3,ConflictResolution
CONGRUENT,LEFT,516.6666677000001,,,,,LEFT,450.1185000000305,2019-10-31 16:27:42.350784,2019-10-31 16:27:43.009208,37,6.53653955,s3,ConflictResolution
CONGRUENT,LEFT,1216.6666691,,,,,LEFT,461.42230000009476,2019-10-31 16:27:44.254323,2019-10-31 16:27:44.923957,38,6.53653955,s3,ConflictResolution
CONGRUENT,RIGHT,1033.3333354000001,,,,,LEFT,324.3057999999337,2019-10-31 16:27:45.986931,2019-10-31 16:27:46.519319,39,6.53653955,s3,ConflictResolution
INCONGRUENT,LEFT,1416.6666695000001,,,,,LEFT,570.595400000002,2019-10-31 16:27:47.963298,2019-10-31 16:27:48.743226,40,6.53653955,s3,ConflictResolution
INCONGRUENT,RIGHT,1166.666669,,,,,RIGHT,547.7445000000216,2019-10-31 16:27:49.932318,2019-10-31 16:27:50.687717,41,6.53653955,s3,ConflictResolution
INCONGRUENT,LEFT,700.0000014,,,,,LEFT,536.8244999999661,2019-10-31 16:27:51.415043,2019-10-31 16:27:52.160113,42,6.53653955,s3,ConflictResolution
CONGRUENT,LEFT,916.6666685,,,,,LEFT,432.7310999999554,2019-10-31 16:27:53.106036,2019-10-31 16:27:53.747311,43,6.53653955,s3,ConflictResolution
INCONGRUENT,LEFT,1400.0000028,,,,,LEFT,529.1429000000107,2019-10-31 16:27:55.175959,2019-10-31 16:27:55.911777,44,6.53653955,s3,ConflictResolution
INCONGRUENT,RIGHT,783.3333349000001,,,,,RIGHT,490.65300000006573,2019-10-31 16:27:56.723573,2019-10-31 16:27:57.423031,45,6.53653955,s3,ConflictResolution
INCONGRUENT,LEFT,633.3333346000001,,,,,LEFT,470.4891000000089,2019-10-31 16:27:58.076580,2019-10-31 16:27:58.756453,46,6.53653955,s3,ConflictResolution
INCONGRUENT,LEFT,833.333335,,,,,LEFT,558.5860999999568,2019-10-31 16:27:59.611214,2019-10-31 16:28:00.378083,47,6.53653955,s3,ConflictResolution
CONGRUENT,LEFT,1083.3333355,,,,,LEFT,496.5587000000369,2019-10-31 16:28:01.489773,2019-10-31 16:28:02.194539,48,6.53653955,s3,ConflictResolution
CONGRUENT,LEFT,1200.0000024,,,,,LEFT,547.2177000000329,2019-10-31 16:28:03.425073,2019-10-31 16:28:04.179427,49,6.53653955,s3,ConflictResolution
CONGRUENT,RIGHT,800.0000016,,,,,RIGHT,610.6231999999636,2019-10-31 16:28:05.008862,2019-10-31 16:28:05.827710,50,6.53653955,s3,ConflictResolution
INCONGRUENT,RIGHT,1050.0000021,,,,,LEFT,457.23380000004,2019-10-31 16:28:06.898565,2019-10-31 16:28:07.562636,51,6.53653955,s3,ConflictResolution
CONGRUENT,LEFT,650.0000013,,,,,LEFT,663.1230000000414,2019-10-31 16:28:08.232827,2019-10-31 16:28:09.103847,52,6.53653955,s3,ConflictResolution
CONGRUENT,LEFT,816.6666683,,,,,LEFT,592.6177000000052,2019-10-31 16:28:09.951739,2019-10-31 16:28:10.752950,53,6.53653955,s3,ConflictResolution
INCONGRUENT,LEFT,766.6666682,,,,,LEFT,599.7479999999769,2019-10-31 16:28:11.539869,2019-10-31 16:28:12.349318,54,6.53653955,s3,ConflictResolution
CONGRUENT,RIGHT,1366.6666694,,,,,RIGHT,439.2808000000059,2019-10-31 16:28:13.740984,2019-10-31 16:28:14.387747,55,6.53653955,s3,ConflictResolution
CONGRUENT,RIGHT,750.0000015,,,,,RIGHT,460.2931000000581,2019-10-31 16:28:15.169647,2019-10-31 16:28:15.838988,56,6.53653955,s3,ConflictResolution
CONGRUENT,LEFT,966.6666686,,,,,LEFT,525.0894000000699,2019-10-31 16:28:16.826095,2019-10-31 16:28:17.559299,57,6.53653955,s3,ConflictResolution
CONGRUENT,RIGHT,1050.0000021,,,,,RIGHT,389.2379000000119,2019-10-31 16:28:18.638649,2019-10-31 16:28:19.236369,58,6.53653955,s3,ConflictResolution
INCONGRUENT,LEFT,1116.6666689,,,,,LEFT,596.2331999999151,2019-10-31 16:28:20.374626,2019-10-31 16:28:21.177589,59,6.53653955,s3,ConflictResolution
CONGRUENT,LEFT,1100.0000022,,,,,LEFT,569.2759999999453,2019-10-31 16:28:22.308315,2019-10-31 16:28:23.085512,60,6.53653955,s3,ConflictResolution
CONGRUENT,LEFT,750.0000015,,,,,LEFT,517.1301999999969,2019-10-31 16:28:23.864311,2019-10-31 16:28:24.589943,61,6.53653955,s3,ConflictResolution
INCONGRUENT,LEFT,1433.3333362,,,,,LEFT,625.019199999997,2019-10-31 16:28:26.050502,2019-10-31 16:28:26.884155,62,6.53653955,s3,ConflictResolution
CONGRUENT,LEFT,833.333335,,,,,LEFT,538.6797999999544,2019-10-31 16:28:27.744151,2019-10-31 16:28:28.492301,63,6.53653955,s3,ConflictResolution
INCONGRUENT,RIGHT,1366.6666694,,,,,RIGHT,584.7538000000441,2019-10-31 16:28:29.888425,2019-10-31 16:28:30.680785,64,6.53653955,s3,ConflictResolution
CONGRUENT,LEFT,1300.0000026,,,,,LEFT,418.8444000000118,2019-10-31 16:28:32.011019,2019-10-31 16:28:32.637482,65,6.53653955,s3,ConflictResolution
INCONGRUENT,LEFT,516.6666677000001,,,,,LEFT,779.3047999999771,2019-10-31 16:28:33.184972,2019-10-31 16:28:34.171708,66,6.53653955,s3,ConflictResolution
CONGRUENT,RIGHT,1000.000002,,,,,RIGHT,425.21580000004633,2019-10-31 16:28:35.193298,2019-10-31 16:28:35.826661,67,6.53653955,s3,ConflictResolution
CONGRUENT,LEFT,850.0000017,,,,,LEFT,414.25920000006045,2019-10-31 16:28:36.705679,2019-10-31 16:28:37.326741,68,6.53653955,s3,ConflictResolution
INCONGRUENT,LEFT,750.0000015,,,,,LEFT,646.2577999999439,2019-10-31 16:28:38.105256,2019-10-31 16:28:38.959853,69,6.53653955,s3,ConflictResolution
INCONGRUENT,LEFT,583.3333345,,,,,RIGHT,372.25180000007185,2019-10-31 16:28:39.572450,2019-10-31 16:28:40.153225,70,6.53653955,s3,ConflictResolution
CONGRUENT,RIGHT,600.0000012,,,,,RIGHT,581.4799000000903,2019-10-31 16:28:40.780903,2019-10-31 16:28:41.570857,71,6.53653955,s3,ConflictResolution
INCONGRUENT,RIGHT,1416.6666695000001,,,,,RIGHT,927.2251999999526,2019-10-31 16:28:43.017929,2019-10-31 16:28:44.153367,72,6.53653955,s3,ConflictResolution
INCONGRUENT,RIGHT,1250.0000025,,,,,RIGHT,541.7579999999589,2019-10-31 16:28:45.429831,2019-10-31 16:28:46.180401,73,6.53653955,s3,ConflictResolution
CONGRUENT,RIGHT,783.3333349000001,,,,,RIGHT,630.841700000019,2019-10-31 16:28:46.993831,2019-10-31 16:28:47.831571,74,6.53653955,s3,ConflictResolution
CONGRUENT,LEFT,1233.3333358,,,,,RIGHT,385.1715000000695,2019-10-31 16:28:49.095373,2019-10-31 16:28:49.688478,75,6.53653955,s3,ConflictResolution
INCONGRUENT,RIGHT,1100.0000022,,,,,RIGHT,537.2037999999293,2019-10-31 16:28:50.808279,2019-10-31 16:28:51.553235,76,6.53653955,s3,ConflictResolution
CONGRUENT,RIGHT,533.3333344,,,,,RIGHT,513.6205000000018,2019-10-31 16:28:52.107767,2019-10-31 16:28:52.828558,77,6.53653955,s3,ConflictResolution
INCONGRUENT,RIGHT,1350.0000027,,,,,RIGHT,582.7019999999266,2019-10-31 16:28:54.207439,2019-10-31 16:28:54.998467,78,6.53653955,s3,ConflictResolution
CONGRUENT,LEFT,1466.6666696,,,,,LEFT,406.70940000006794,2019-10-31 16:28:56.494893,2019-10-31 16:28:57.110263,79,6.53653955,s3,ConflictResolution
INCONGRUENT,LEFT,1316.6666693,,,,,LEFT,540.0867000000744,2019-10-31 16:28:58.456724,2019-10-31 16:28:59.205367,80,6.53653955,s3,ConflictResolution
CONGRUENT,LEFT,933.3333352,,,,,LEFT,545.4860999999482,2019-10-31 16:29:00.170509,2019-10-31 16:29:00.924902,81,6.53653955,s3,ConflictResolution
INCONGRUENT,LEFT,1150.0000023,,,,,RIGHT,435.5266000000029,2019-10-31 16:29:02.104893,2019-10-31 16:29:02.749055,82,6.53653955,s3,ConflictResolution
INCONGRUENT,LEFT,566.6666678,,,,,LEFT,663.4435000000849,2019-10-31 16:29:03.345427,2019-10-31 16:29:04.217469,83,6.53653955,s3,ConflictResolution
INCONGRUENT,RIGHT,1083.3333355,,,,,RIGHT,590.1808999999503,2019-10-31 16:29:05.328890,2019-10-31 16:29:06.127073,84,6.53653955,s3,ConflictResolution
INCONGRUENT,LEFT,1050.0000021,,,,,LEFT,614.0912000000753,2019-10-31 16:29:07.205331,2019-10-31 16:29:08.027121,85,6.53653955,s3,ConflictResolution
INCONGRUENT,RIGHT,916.6666685,,,,,RIGHT,655.6487000000288,2019-10-31 16:29:08.973453,2019-10-31 16:29:09.837228,86,6.53653955,s3,ConflictResolution
INCONGRUENT,RIGHT,1383.3333361,,,,,LEFT,384.18560000002344,2019-10-31 16:29:11.250923,2019-10-31 16:29:11.842777,87,6.53653955,s3,ConflictResolution
CONGRUENT,LEFT,1133.3333356,,,,,LEFT,493.7385999999151,2019-10-31 16:29:13.006630,2019-10-31 16:29:13.708687,88,6.53653955,s3,ConflictResolution
CONGRUENT,RIGHT,916.6666685,,,,,RIGHT,482.67390000000887,2019-10-31 16:29:14.655485,2019-10-31 16:29:15.345828,89,6.53653955,s3,ConflictResolution
INCONGRUENT,LEFT,1216.6666691,,,,,LEFT,598.804399999949,2019-10-31 16:29:16.592604,2019-10-31 16:29:17.399833,90,6.53653955,s3,ConflictResolution
CONGRUENT,LEFT,1433.3333362,,,,,LEFT,492.0055999999704,2019-10-31 16:29:18.863971,2019-10-31 16:29:19.563884,91,6.53653955,s3,ConflictResolution
INCONGRUENT,LEFT,1033.3333354000001,,,,,LEFT,493.6653000000888,2019-10-31 16:29:20.624552,2019-10-31 16:29:21.326584,92,6.53653955,s3,ConflictResolution
INCONGRUENT,RIGHT,883.3333351,,,,,RIGHT,578.9753999999903,2019-10-31 16:29:22.232785,2019-10-31 16:29:23.019794,93,6.53653955,s3,ConflictResolution
INCONGRUENT,RIGHT,950.0000019,,,,,RIGHT,717.8132000000232,2019-10-31 16:29:23.990902,2019-10-31 16:29:24.915816,94,6.53653955,s3,ConflictResolution
INCONGRUENT,LEFT,1133.3333356,,,,,LEFT,672.1595000000207,2019-10-31 16:29:26.081049,2019-10-31 16:29:26.960606,95,6.53653955,s3,ConflictResolution
CONGRUENT,RIGHT,1433.3333362,,,,,RIGHT,580.2966999999626,2019-10-31 16:29:28.422499,2019-10-31 16:29:29.210628,96,6.53653955,s3,ConflictResolution
INCONGRUENT,LEFT,650.0000013,,,,,LEFT,548.9950999999564,2019-10-31 16:29:29.888944,2019-10-31 16:29:30.646796,97,6.53653955,s3,ConflictResolution
CONGRUENT,LEFT,1033.3333354000001,,,,,LEFT,374.55640000007406,2019-10-31 16:29:31.704808,2019-10-31 16:29:32.288232,98,6.53653955,s3,ConflictResolution
INCONGRUENT,RIGHT,716.6666681,,,,,RIGHT,580.6604999999081,2019-10-31 16:29:33.032295,2019-10-31 16:29:33.821259,99,6.53653955,s3,ConflictResolution
CONGRUENT,LEFT,533.3333344,,,,,LEFT,407.98209999991286,2019-10-31 16:29:34.382026,2019-10-31 16:29:34.998012,100,6.53653955,s3,ConflictResolution
CONGRUENT,LEFT,1316.6666693,,,,,LEFT,491.9596999999385,2019-10-31 16:29:36.344773,2019-10-31 16:29:37.044145,101,6.53653955,s3,ConflictResolution
INCONGRUENT,LEFT,1233.3333358,,,,,LEFT,609.0513999999985,2019-10-31 16:29:38.304908,2019-10-31 16:29:39.122168,102,6.53653955,s3,ConflictResolution
INCONGRUENT,RIGHT,1333.3333360000001,,,,,RIGHT,550.7631000000401,2019-10-31 16:29:40.486868,2019-10-31 16:29:41.244715,103,6.53653955,s3,ConflictResolution
INCONGRUENT,LEFT,1000.000002,,,,,LEFT,614.5159999999805,2019-10-31 16:29:42.274027,2019-10-31 16:29:43.095678,104,6.53653955,s3,ConflictResolution
CONGRUENT,RIGHT,1200.0000024,,,,,RIGHT,762.5071999999591,2019-10-31 16:29:44.324359,2019-10-31 16:29:45.295395,105,6.53653955,s3,ConflictResolution
INCONGRUENT,RIGHT,750.0000015,,,,,RIGHT,805.6976999999961,2019-10-31 16:29:46.075025,2019-10-31 16:29:47.088597,106,6.53653955,s3,ConflictResolution
CONGRUENT,RIGHT,966.6666686,,,,,RIGHT,445.3866000000062,2019-10-31 16:29:48.084376,2019-10-31 16:29:48.737668,107,6.53653955,s3,ConflictResolution
INCONGRUENT,RIGHT,1000.000002,,,,,LEFT,469.70520000002125,2019-10-31 16:29:49.767999,2019-10-31 16:29:50.445725,108,6.53653955,s3,ConflictResolution
CONGRUENT,LEFT,1016.6666687000001,,,,,LEFT,715.2661999999737,2019-10-31 16:29:51.494216,2019-10-31 16:29:52.418958,109,6.53653955,s3,ConflictResolution
CONGRUENT,LEFT,1183.3333357000001,,,,,LEFT,474.303999999961,2019-10-31 16:29:53.626031,2019-10-31 16:29:54.309209,110,6.53653955,s3,ConflictResolution
INCONGRUENT,RIGHT,533.3333344,,,,,RIGHT,644.1297000000077,2019-10-31 16:29:54.862423,2019-10-31 16:29:55.714765,111,6.53653955,s3,ConflictResolution
CONGRUENT,RIGHT,1383.3333361,,,,,RIGHT,570.2748999999585,2019-10-31 16:29:57.128051,2019-10-31 16:29:57.906186,112,6.53653955,s3,ConflictResolution
INCONGRUENT,RIGHT,850.0000017,,,,,RIGHT,671.9935999999507,2019-10-31 16:29:58.776557,2019-10-31 16:29:59.655777,113,6.53653955,s3,ConflictResolution
CONGRUENT,RIGHT,1150.0000023,,,,,RIGHT,377.5476000000708,2019-10-31 16:30:00.835682,2019-10-31 16:30:01.420790,114,6.53653955,s3,ConflictResolution
CONGRUENT,RIGHT,850.0000017,,,,,RIGHT,602.7427000000216,2019-10-31 16:30:02.299112,2019-10-31 16:30:03.111310,115,6.53653955,s3,ConflictResolution
CONGRUENT,RIGHT,983.3333353,,,,,RIGHT,454.2974000000868,2019-10-31 16:30:04.123897,2019-10-31 16:30:04.787121,116,6.53653955,s3,ConflictResolution
CONGRUENT,LEFT,1483.3333363,,,,,RIGHT,598.2378999999582,2019-10-31 16:30:06.293523,2019-10-31 16:30:07.101437,117,6.53653955,s3,ConflictResolution
CONGRUENT,RIGHT,1183.3333357000001,,,,,RIGHT,501.72539999994115,2019-10-31 16:30:08.309046,2019-10-31 16:30:09.018572,118,6.53653955,s3,ConflictResolution
CONGRUENT,LEFT,766.6666682,,,,,LEFT,736.912499999903,2019-10-31 16:30:09.809703,2019-10-31 16:30:10.753880,119,6.53653955,s3,ConflictResolution
CONGRUENT,RIGHT,1250.0000025,,,,,RIGHT,1000.3037999999833,2019-10-31 16:30:12.034753,2019-10-31 16:30:13.242851,120,6.53653955,s3,ConflictResolution
INCONGRUENT,LEFT,850.0000017,,,,,LEFT,962.9950999999437,2019-10-31 16:30:14.123516,2019-10-31 16:30:15.294594,121,6.53653955,s3,ConflictResolution
INCONGRUENT,RIGHT,1450.0000029,,,,,RIGHT,1269.6471999998948,2019-10-31 16:30:16.774505,2019-10-31 16:30:18.251979,122,6.53653955,s3,ConflictResolution
INCONGRUENT,LEFT,933.3333352,,,,,LEFT,771.3658000000123,2019-10-31 16:30:19.214855,2019-10-31 16:30:20.193600,123,6.53653955,s3,ConflictResolution
INCONGRUENT,RIGHT,700.0000014,,,,,RIGHT,596.5053999999554,2019-10-31 16:30:20.924303,2019-10-31 16:30:21.728619,124,6.53653955,s3,ConflictResolution
INCONGRUENT,RIGHT,683.3333347,,,,,RIGHT,692.6819999999907,2019-10-31 16:30:22.443896,2019-10-31 16:30:23.344416,125,6.53653955,s3,ConflictResolution
CONGRUENT,LEFT,1416.6666695000001,,,,,LEFT,475.55980000004183,2019-10-31 16:30:24.783018,2019-10-31 16:30:25.466186,126,6.53653955,s3,ConflictResolution
CONGRUENT,RIGHT,866.6666684,,,,,RIGHT,504.18770000010227,2019-10-31 16:30:26.362883,2019-10-31 16:30:27.073911,127,6.53653955,s3,ConflictResolution
INCONGRUENT,LEFT,966.6666686,,,,,LEFT,561.5136999999777,2019-10-31 16:30:28.069858,2019-10-31 16:30:28.838785,128,6.53653955,s3,ConflictResolution
CONGRUENT,LEFT,1366.6666694,,,,,LEFT,1046.0450999999011,2019-10-31 16:30:30.235686,2019-10-31 16:30:31.489744,129,6.53653955,s3,ConflictResolution
INCONGRUENT,RIGHT,866.6666684,,,,,RIGHT,699.4224000000031,2019-10-31 16:30:32.385224,2019-10-31 16:30:33.293166,130,6.53653955,s3,ConflictResolution
INCONGRUENT,LEFT,616.6666679,,,,,LEFT,694.9525999999651,2019-10-31 16:30:33.938211,2019-10-31 16:30:34.840748,131,6.53653955,s3,ConflictResolution
INCONGRUENT,LEFT,1500.000003,,,,,LEFT,548.9066000000093,2019-10-31 16:30:36.370747,2019-10-31 16:30:37.127656,132,6.53653955,s3,ConflictResolution
CONGRUENT,LEFT,1383.3333361,,,,,LEFT,418.97400000004836,2019-10-31 16:30:38.541829,2019-10-31 16:30:39.169104,133,6.53653955,s3,ConflictResolution
CONGRUENT,LEFT,716.6666681,,,,,LEFT,547.2272999999177,2019-10-31 16:30:39.913873,2019-10-31 16:30:40.667928,134,6.53653955,s3,ConflictResolution
INCONGRUENT,LEFT,1016.6666687000001,,,,,LEFT,499.80059999995774,2019-10-31 16:30:41.705901,2019-10-31 16:30:42.414326,135,6.53653955,s3,ConflictResolution
CONGRUENT,RIGHT,1450.0000029,,,,,RIGHT,429.7700000000759,2019-10-31 16:30:43.890773,2019-10-31 16:30:44.529489,136,6.53653955,s3,ConflictResolution
INCONGRUENT,LEFT,800.0000016,,,,,LEFT,558.0156999999417,2019-10-31 16:30:45.358047,2019-10-31 16:30:46.124158,137,6.53653955,s3,ConflictResolution
CONGRUENT,RIGHT,583.3333345,,,,,RIGHT,478.4023999999363,2019-10-31 16:30:46.737339,2019-10-31 16:30:47.422811,138,6.53653955,s3,ConflictResolution
INCONGRUENT,LEFT,666.6666680000001,,,,,LEFT,418.25299999982235,2019-10-31 16:30:48.118956,2019-10-31 16:30:48.745732,139,6.53653955,s3,ConflictResolution
CONGRUENT,LEFT,666.6666680000001,,,,,LEFT,525.4899000001387,2019-10-31 16:30:49.440186,2019-10-31 16:30:50.173547,140,6.53653955,s3,ConflictResolution
CONGRUENT,LEFT,1333.3333360000001,,,,,LEFT,420.9668999999394,2019-10-31 16:30:51.538063,2019-10-31 16:30:52.167648,141,6.53653955,s3,ConflictResolution
CONGRUENT,RIGHT,1333.3333360000001,,,,,RIGHT,471.2162000000717,2019-10-31 16:30:53.530126,2019-10-31 16:30:54.209539,142,6.53653955,s3,ConflictResolution
CONGRUENT,LEFT,950.0000019,,,,,RIGHT,383.4382000000005,2019-10-31 16:30:55.189265,2019-10-31 16:30:55.780344,143,6.53653955,s3,ConflictResolution
CONGRUENT,LEFT,1116.6666689,,,,,LEFT,422.3194000001058,2019-10-31 16:30:56.926943,2019-10-31 16:30:57.557290,144,6.53653955,s3,ConflictResolution
INCONGRUENT,RIGHT,1283.3333359,,,,,RIGHT,563.4806000000481,2019-10-31 16:30:58.868773,2019-10-31 16:30:59.640446,145,6.53653955,s3,ConflictResolution
CONGRUENT,LEFT,1000.000002,,,,,LEFT,706.7366999999649,2019-10-31 16:31:00.670802,2019-10-31 16:31:01.586250,146,6.53653955,s3,ConflictResolution
INCONGRUENT,LEFT,1183.3333357000001,,,,,LEFT,611.8114000000787,2019-10-31 16:31:02.808309,2019-10-31 16:31:03.627649,147,6.53653955,s3,ConflictResolution
CONGRUENT,RIGHT,683.3333347,,,,,RIGHT,507.323900000074,2019-10-31 16:31:04.334958,2019-10-31 16:31:05.051148,148,6.53653955,s3,ConflictResolution
INCONGRUENT,LEFT,816.6666683,,,,,LEFT,570.6884999999602,2019-10-31 16:31:05.895208,2019-10-31 16:31:06.674417,149,6.53653955,s3,ConflictResolution
CONGRUENT,RIGHT,500.000001,,,,,RIGHT,463.7336000000687,2019-10-31 16:31:07.204157,2019-10-31 16:31:07.876190,150,6.53653955,s3,ConflictResolution
INCONGRUENT,LEFT,1483.3333363,,,,,LEFT,556.998300000032,2019-10-31 16:31:09.387746,2019-10-31 16:31:10.152458,151,6.53653955,s3,ConflictResolution
CONGRUENT,LEFT,1150.0000023,,,,,LEFT,545.0669000001653,2019-10-31 16:31:11.322794,2019-10-31 16:31:12.074675,152,6.53653955,s3,ConflictResolution
CONGRUENT,RIGHT,1133.3333356,,,,,RIGHT,491.51069999993524,2019-10-31 16:31:13.238495,2019-10-31 16:31:13.939417,153,6.53653955,s3,ConflictResolution
INCONGRUENT,LEFT,900.0000018000001,,,,,LEFT,557.3018000000047,2019-10-31 16:31:14.869063,2019-10-31 16:31:15.633796,154,6.53653955,s3,ConflictResolution
INCONGRUENT,RIGHT,1433.3333362,,,,,RIGHT,581.6145999999662,2019-10-31 16:31:17.094536,2019-10-31 16:31:17.885110,155,6.53653955,s3,ConflictResolution
CONGRUENT,LEFT,866.6666684,,,,,LEFT,377.11930000000393,2019-10-31 16:31:18.781202,2019-10-31 16:31:19.366266,156,6.53653955,s3,ConflictResolution
CONGRUENT,RIGHT,666.6666680000001,,,,,RIGHT,561.3958999999795,2019-10-31 16:31:20.056443,2019-10-31 16:31:20.824814,157,6.53653955,s3,ConflictResolution
CONGRUENT,RIGHT,1066.6666688,,,,,RIGHT,490.33650000001217,2019-10-31 16:31:21.921746,2019-10-31 16:31:22.619289,158,6.53653955,s3,ConflictResolution
CONGRUENT,RIGHT,633.3333346000001,,,,,RIGHT,460.64019999994343,2019-10-31 16:31:23.281570,2019-10-31 16:31:23.949568,159,6.53653955,s3,ConflictResolution
INCONGRUENT,RIGHT,1266.6666692000001,,,,,LEFT,490.5375000000731,2019-10-31 16:31:25.246669,2019-10-31 16:31:25.945503,160,6.53653955,s3,ConflictResolution
INCONGRUENT,LEFT,716.6666681,,,,,LEFT,640.02830000004,2019-10-31 16:31:26.690731,2019-10-31 16:31:27.539313,161,6.53653955,s3,ConflictResolution
CONGRUENT,RIGHT,950.0000019,,,,,RIGHT,717.3453999998856,2019-10-31 16:31:28.509815,2019-10-31 16:31:29.435984,162,6.53653955,s3,ConflictResolution
CONGRUENT,RIGHT,566.6666678,,,,,RIGHT,399.5698999999604,2019-10-31 16:31:30.030541,2019-10-31 16:31:30.637917,163,6.53653955,s3,ConflictResolution
CONGRUENT,LEFT,1283.3333359,,,,,LEFT,411.7084000001796,2019-10-31 16:31:31.948963,2019-10-31 16:31:32.568594,164,6.53653955,s3,ConflictResolution
CONGRUENT,LEFT,1500.000003,,,,,LEFT,360.44860000015433,2019-10-31 16:31:34.098496,2019-10-31 16:31:34.667315,165,6.53653955,s3,ConflictResolution
INCONGRUENT,RIGHT,600.0000012,,,,,LEFT,365.929099999903,2019-10-31 16:31:35.295646,2019-10-31 16:31:35.868931,166,6.53653955,s3,ConflictResolution
INCONGRUENT,RIGHT,566.6666678,,,,,RIGHT,685.8968999999888,2019-10-31 16:31:36.462349,2019-10-31 16:31:37.355685,167,6.53653955,s3,ConflictResolution
CONGRUENT,RIGHT,700.0000014,,,,,RIGHT,423.19850000012593,2019-10-31 16:31:38.078517,2019-10-31 16:31:38.708767,168,6.53653955,s3,ConflictResolution
CONGRUENT,LEFT,733.3333348,,,,,LEFT,459.4746000000214,2019-10-31 16:31:39.470917,2019-10-31 16:31:40.137942,169,6.53653955,s3,ConflictResolution
INCONGRUENT,RIGHT,633.3333346000001,,,,,RIGHT,762.6602999998795,2019-10-31 16:31:40.791083,2019-10-31 16:31:41.762041,170,6.53653955,s3,ConflictResolution
INCONGRUENT,LEFT,533.3333344,,,,,LEFT,527.8923999999279,2019-10-31 16:31:42.323410,2019-10-31 16:31:43.059122,171,6.53653955,s3,ConflictResolution
CONGRUENT,LEFT,900.0000018000001,,,,,LEFT,416.98269999983495,2019-10-31 16:31:43.988467,2019-10-31 16:31:44.612713,172,6.53653955,s3,ConflictResolution
CONGRUENT,LEFT,583.3333345,,,,,LEFT,332.5581000001421,2019-10-31 16:31:45.226088,2019-10-31 16:31:45.766047,173,6.53653955,s3,ConflictResolution
CONGRUENT,LEFT,1050.0000021,,,,,LEFT,382.24349999995866,2019-10-31 16:31:46.836291,2019-10-31 16:31:47.427349,174,6.53653955,s3,ConflictResolution
INCONGRUENT,LEFT,1200.0000024,,,,,LEFT,575.4985999999462,2019-10-31 16:31:48.656775,2019-10-31 16:31:49.440119,175,6.53653955,s3,ConflictResolution
CONGRUENT,RIGHT,616.6666679,,,,,RIGHT,758.3558000001176,2019-10-31 16:31:50.085755,2019-10-31 16:31:51.053184,176,6.53653955,s3,ConflictResolution
INCONGRUENT,LEFT,1366.6666694,,,,,LEFT,621.1774999999307,2019-10-31 16:31:52.448554,2019-10-31 16:31:53.278063,177,6.53653955,s3,ConflictResolution
INCONGRUENT,LEFT,1333.3333360000001,,,,,LEFT,554.9652999998216,2019-10-31 16:31:54.632231,2019-10-31 16:31:55.396392,178,6.53653955,s3,ConflictResolution
INCONGRUENT,RIGHT,983.3333353,,,,,RIGHT,679.1992999999366,2019-10-31 16:31:56.408014,2019-10-31 16:31:57.294900,179,6.53653955,s3,ConflictResolution
INCONGRUENT,RIGHT,1466.6666696,,,,,RIGHT,679.8114000000623,2019-10-31 16:31:58.789591,2019-10-31 16:31:59.677948,180,6.53653955,s3,ConflictResolution
INCONGRUENT,LEFT,1283.3333359,,,,,RIGHT,743.7509000001228,2019-10-31 16:32:00.982262,2019-10-31 16:32:01.934325,181,6.53653955,s3,ConflictResolution
INCONGRUENT,LEFT,1083.3333355,,,,,LEFT,544.8151999999027,2019-10-31 16:32:03.038167,2019-10-31 16:32:03.790465,182,6.53653955,s3,ConflictResolution
CONGRUENT,RIGHT,1233.3333358,,,,,RIGHT,474.2197999999007,2019-10-31 16:32:05.052360,2019-10-31 16:32:05.735065,183,6.53653955,s3,ConflictResolution
CONGRUENT,RIGHT,516.6666677000001,,,,,RIGHT,500.4395000000841,2019-10-31 16:32:06.280554,2019-10-31 16:32:06.988635,184,6.53653955,s3,ConflictResolution
CONGRUENT,LEFT,633.3333346000001,,,,,LEFT,872.441199999912,2019-10-31 16:32:07.652706,2019-10-31 16:32:08.733920,185,6.53653955,s3,ConflictResolution
INCONGRUENT,RIGHT,900.0000018000001,,,,,RIGHT,485.28650000002926,2019-10-31 16:32:09.662300,2019-10-31 16:32:10.356015,186,6.53653955,s3,ConflictResolution
INCONGRUENT,RIGHT,966.6666686,,,,,RIGHT,572.3442000000887,2019-10-31 16:32:11.343745,2019-10-31 16:32:12.124363,187,6.53653955,s3,ConflictResolution
CONGRUENT,LEFT,1250.0000025,,,,,LEFT,454.99019999988377,2019-10-31 16:32:13.405753,2019-10-31 16:32:14.067563,188,6.53653955,s3,ConflictResolution
INCONGRUENT,RIGHT,500.000001,,,,,RIGHT,575.8245000001807,2019-10-31 16:32:14.588452,2019-10-31 16:32:15.372346,189,6.53653955,s3,ConflictResolution
INCONGRUENT,RIGHT,1150.0000023,,,,,RIGHT,580.0177999999505,2019-10-31 16:32:16.550709,2019-10-31 16:32:17.338146,190,6.53653955,s3,ConflictResolution
CONGRUENT,RIGHT,883.3333351,,,,,RIGHT,692.5108000000364,2019-10-31 16:32:18.245114,2019-10-31 16:32:19.145015,191,6.53653955,s3,ConflictResolution
INCONGRUENT,RIGHT,816.6666683,,,,,RIGHT,337.9008000001704,2019-10-31 16:32:19.992699,2019-10-31 16:32:20.538901,192,6.53653955,s3,ConflictResolution
CONGRUENT,RIGHT,1166.666669,,,,,RIGHT,485.33420000012484,2019-10-31 16:32:21.735489,2019-10-31 16:32:22.429426,193,6.53653955,s3,ConflictResolution
CONGRUENT,LEFT,550.0000011,,,,,LEFT,327.4178000001484,2019-10-31 16:32:22.999582,2019-10-31 16:32:23.534535,194,6.53653955,s3,ConflictResolution
INCONGRUENT,RIGHT,800.0000016,,,,,RIGHT,508.093499999859,2019-10-31 16:32:24.363667,2019-10-31 16:32:25.080143,195,6.53653955,s3,ConflictResolution
CONGRUENT,RIGHT,1083.3333355,,,,,RIGHT,557.1869000000333,2019-10-31 16:32:26.191407,2019-10-31 16:32:26.956209,196,6.53653955,s3,ConflictResolution
CONGRUENT,LEFT,800.0000016,,,,,LEFT,475.6262999999308,2019-10-31 16:32:27.785025,2019-10-31 16:32:28.469210,197,6.53653955,s3,ConflictResolution
INCONGRUENT,LEFT,733.3333348,,,,,LEFT,569.4605000001047,2019-10-31 16:32:29.229729,2019-10-31 16:32:30.007395,198,6.53653955,s3,ConflictResolution
CONGRUENT,RIGHT,1466.6666696,,,,,RIGHT,553.51799999994,2019-10-31 16:32:31.502547,2019-10-31 16:32:32.264751,199,6.53653955,s3,ConflictResolution
CONGRUENT,RIGHT,1266.6666692000001,,,,,RIGHT,473.01259999994727,2019-10-31 16:32:33.560051,2019-10-31 16:32:34.241222,200,6.53653955,s3,ConflictResolution
