Stimulus_Side,ITI,Stop_Signal,Stop_Signal_RT,Previous_Response,Previous_RT,Response,RT,Trial_Time_Onset,Trial_Time_End,Trial_Order,Duration,Participant,Task
LEFT,1500.000003,False,,,,LEFT,483.77390000001697,2019-10-31 16:19:48.092443,2019-10-31 16:19:48.783831,1,6.704649966666667,s3,ResponseInhibition
RIGHT,600.0000012,False,,,,RIGHT,315.1083999999855,2019-10-31 16:19:49.401181,2019-10-31 16:19:49.925006,2,6.704649966666667,s3,ResponseInhibition
RIGHT,1500.000003,False,,,,RIGHT,404.4216000000347,2019-10-31 16:19:51.443946,2019-10-31 16:19:52.057116,3,6.704649966666667,s3,ResponseInhibition
LEFT,1133.3333356,False,,,,LEFT,314.6911999999702,2019-10-31 16:19:53.207953,2019-10-31 16:19:53.734163,4,6.704649966666667,s3,ResponseInhibition
LEFT,1316.6666693,False,,,,LEFT,369.3660000000136,2019-10-31 16:19:55.060134,2019-10-31 16:19:55.637614,5,6.704649966666667,s3,ResponseInhibition
LEFT,1383.3333361,False,,,,LEFT,370.432400000027,2019-10-31 16:19:57.029996,2019-10-31 16:19:57.610973,6,6.704649966666667,s3,ResponseInhibition
LEFT,750.0000015,False,,,,LEFT,324.384699999996,2019-10-31 16:19:58.370436,2019-10-31 16:19:58.904482,7,6.704649966666667,s3,ResponseInhibition
RIGHT,533.3333344,False,,,,RIGHT,399.4642999999769,2019-10-31 16:19:59.455738,2019-10-31 16:20:00.063124,8,6.704649966666667,s3,ResponseInhibition
LEFT,1333.3333360000001,False,,,,LEFT,760.2605000000153,2019-10-31 16:20:01.404545,2019-10-31 16:20:02.374061,9,6.704649966666667,s3,ResponseInhibition
LEFT,1300.0000026,False,,,,LEFT,369.77080000002616,2019-10-31 16:20:03.690428,2019-10-31 16:20:04.267802,10,6.704649966666667,s3,ResponseInhibition
RIGHT,700.0000014,False,,,,RIGHT,296.6562999999951,2019-10-31 16:20:04.983465,2019-10-31 16:20:05.489057,11,6.704649966666667,s3,ResponseInhibition
LEFT,1466.6666696,False,,,,LEFT,336.8205999999532,2019-10-31 16:20:06.973217,2019-10-31 16:20:07.517510,12,6.704649966666667,s3,ResponseInhibition
LEFT,950.0000019,True,116.6666669,,,LEFT,344.8867669000441,2019-10-31 16:20:08.476003,2019-10-31 16:20:09.033311,13,6.704649966666667,s3,ResponseInhibition
RIGHT,650.0000013,False,,,,RIGHT,397.3095999999714,2019-10-31 16:20:09.702095,2019-10-31 16:20:10.308065,14,6.704649966666667,s3,ResponseInhibition
LEFT,866.6666684,True,133.3333336,,,Time_Max_Exceeded,1500.0637335999945,2019-10-31 16:20:11.192509,2019-10-31 16:20:12.696044,15,6.704649966666667,s3,ResponseInhibition
LEFT,850.0000017,False,,,,LEFT,458.16189999999324,2019-10-31 16:20:13.573802,2019-10-31 16:20:14.241027,16,6.704649966666667,s3,ResponseInhibition
RIGHT,683.3333347,False,,,,RIGHT,383.931299999972,2019-10-31 16:20:14.941495,2019-10-31 16:20:15.533842,17,6.704649966666667,s3,ResponseInhibition
LEFT,966.6666686,False,,,,LEFT,641.9001000000435,2019-10-31 16:20:16.518523,2019-10-31 16:20:17.367973,18,6.704649966666667,s3,ResponseInhibition
RIGHT,1100.0000022,False,,,,RIGHT,292.8751000000034,2019-10-31 16:20:18.484669,2019-10-31 16:20:18.986431,19,6.704649966666667,s3,ResponseInhibition
LEFT,683.3333347,False,,,,LEFT,289.0360999999757,2019-10-31 16:20:19.687570,2019-10-31 16:20:20.184794,20,6.704649966666667,s3,ResponseInhibition
LEFT,1066.6666688,False,,,,LEFT,378.41869999999744,2019-10-31 16:20:21.268559,2019-10-31 16:20:21.855001,21,6.704649966666667,s3,ResponseInhibition
RIGHT,1283.3333359,False,,,,RIGHT,598.1292000000167,2019-10-31 16:20:23.148274,2019-10-31 16:20:23.955459,22,6.704649966666667,s3,ResponseInhibition
RIGHT,766.6666682,False,,,,RIGHT,428.4195999999838,2019-10-31 16:20:24.738972,2019-10-31 16:20:25.374850,23,6.704649966666667,s3,ResponseInhibition
RIGHT,850.0000017,False,,,,RIGHT,384.4895999999949,2019-10-31 16:20:26.242720,2019-10-31 16:20:26.834067,24,6.704649966666667,s3,ResponseInhibition
LEFT,1233.3333358,False,,,,LEFT,336.67650000001004,2019-10-31 16:20:28.086034,2019-10-31 16:20:28.630565,25,6.704649966666667,s3,ResponseInhibition
LEFT,1050.0000021,False,,,,LEFT,404.13309999996727,2019-10-31 16:20:29.697847,2019-10-31 16:20:30.310861,26,6.704649966666667,s3,ResponseInhibition
LEFT,1166.666669,False,,,,LEFT,510.5835999999613,2019-10-31 16:20:31.486748,2019-10-31 16:20:32.205213,27,6.704649966666667,s3,ResponseInhibition
RIGHT,900.0000018000001,True,33.3333334,,,RIGHT,351.5983333999967,2019-10-31 16:20:33.121821,2019-10-31 16:20:33.686175,28,6.704649966666667,s3,ResponseInhibition
RIGHT,666.6666680000001,True,83.33333350000001,,,Time_Max_Exceeded,1500.0689335000382,2019-10-31 16:20:34.373016,2019-10-31 16:20:35.876378,29,6.704649966666667,s3,ResponseInhibition
RIGHT,866.6666684,False,,,,RIGHT,412.64330000001337,2019-10-31 16:20:36.753119,2019-10-31 16:20:37.374323,30,6.704649966666667,s3,ResponseInhibition
RIGHT,1016.6666687000001,False,,,,RIGHT,547.8175000000078,2019-10-31 16:20:38.407671,2019-10-31 16:20:39.162707,31,6.704649966666667,s3,ResponseInhibition
RIGHT,1216.6666691,False,,,,RIGHT,576.9750000000045,2019-10-31 16:20:40.396385,2019-10-31 16:20:41.181409,32,6.704649966666667,s3,ResponseInhibition
LEFT,1033.3333354000001,True,100.0000002,,,Time_Max_Exceeded,1500.0663001999917,2019-10-31 16:20:42.232348,2019-10-31 16:20:43.736260,33,6.704649966666667,s3,ResponseInhibition
LEFT,650.0000013,False,,,,LEFT,425.86519999997563,2019-10-31 16:20:44.396327,2019-10-31 16:20:45.030368,34,6.704649966666667,s3,ResponseInhibition
LEFT,716.6666681,False,,,,LEFT,365.83229999996547,2019-10-31 16:20:45.756213,2019-10-31 16:20:46.329196,35,6.704649966666667,s3,ResponseInhibition
RIGHT,583.3333345,True,166.66666700000002,,,Time_Max_Exceeded,1500.062966999947,2019-10-31 16:20:46.920915,2019-10-31 16:20:48.424803,36,6.704649966666667,s3,ResponseInhibition
LEFT,1250.0000025,False,,,,LEFT,338.4708000000387,2019-10-31 16:20:49.685768,2019-10-31 16:20:50.231896,37,6.704649966666667,s3,ResponseInhibition
LEFT,833.333335,False,,,,LEFT,323.94239999996444,2019-10-31 16:20:51.081741,2019-10-31 16:20:51.615433,38,6.704649966666667,s3,ResponseInhibition
LEFT,1433.3333362,True,266.6666672,,,Time_Max_Exceeded,1500.0658672000081,2019-10-31 16:20:53.064983,2019-10-31 16:20:54.568900,39,6.704649966666667,s3,ResponseInhibition
RIGHT,1233.3333358,True,250.0000005,,,RIGHT,314.2942005000062,2019-10-31 16:20:55.813259,2019-10-31 16:20:56.339261,40,6.704649966666667,s3,ResponseInhibition
RIGHT,1416.6666695000001,False,,,,RIGHT,478.3568999999943,2019-10-31 16:20:57.777189,2019-10-31 16:20:58.464023,41,6.704649966666667,s3,ResponseInhibition
LEFT,1200.0000024,True,100.0000002,,,Time_Max_Exceeded,1500.0639001999637,2019-10-31 16:20:59.682535,2019-10-31 16:21:01.185536,42,6.704649966666667,s3,ResponseInhibition
RIGHT,783.3333349000001,False,,,,RIGHT,556.2203000000068,2019-10-31 16:21:01.979993,2019-10-31 16:21:02.744243,43,6.704649966666667,s3,ResponseInhibition
LEFT,616.6666679,True,16.6666667,,,Time_Max_Exceeded,1500.0571667000413,2019-10-31 16:21:03.378311,2019-10-31 16:21:04.880992,44,6.704649966666667,s3,ResponseInhibition
RIGHT,1133.3333356,False,,,,RIGHT,570.9933000000547,2019-10-31 16:21:06.024740,2019-10-31 16:21:06.803769,45,6.704649966666667,s3,ResponseInhibition
LEFT,900.0000018000001,False,,,,LEFT,369.2111999999952,2019-10-31 16:21:07.722531,2019-10-31 16:21:08.300188,46,6.704649966666667,s3,ResponseInhibition
RIGHT,1400.0000028,True,150.0000003,,,Time_Max_Exceeded,1500.0681002999872,2019-10-31 16:21:09.716802,2019-10-31 16:21:11.220700,47,6.704649966666667,s3,ResponseInhibition
LEFT,583.3333345,False,,,,LEFT,395.819500000016,2019-10-31 16:21:11.816350,2019-10-31 16:21:12.420072,48,6.704649966666667,s3,ResponseInhibition
LEFT,600.0000012,False,,,,LEFT,575.180400000022,2019-10-31 16:21:13.039315,2019-10-31 16:21:13.821665,49,6.704649966666667,s3,ResponseInhibition
LEFT,516.6666677000001,False,,,,LEFT,447.9840000000195,2019-10-31 16:21:14.355243,2019-10-31 16:21:15.010761,50,6.704649966666667,s3,ResponseInhibition
RIGHT,1116.6666689,False,,,,RIGHT,408.7360999999987,2019-10-31 16:21:16.144114,2019-10-31 16:21:16.760709,51,6.704649966666667,s3,ResponseInhibition
LEFT,766.6666682,False,,,,LEFT,401.5160000000151,2019-10-31 16:21:17.544974,2019-10-31 16:21:18.155390,52,6.704649966666667,s3,ResponseInhibition
RIGHT,516.6666677000001,True,50.0000001,,,Time_Max_Exceeded,1500.063500099999,2019-10-31 16:21:18.690051,2019-10-31 16:21:20.194309,53,6.704649966666667,s3,ResponseInhibition
LEFT,1216.6666691,False,,,,LEFT,376.59890000003315,2019-10-31 16:21:21.421190,2019-10-31 16:21:22.005651,54,6.704649966666667,s3,ResponseInhibition
LEFT,1483.3333363,False,,,,LEFT,540.0430000000256,2019-10-31 16:21:23.507816,2019-10-31 16:21:24.256108,55,6.704649966666667,s3,ResponseInhibition
LEFT,883.3333351,False,,,,LEFT,407.3921000000382,2019-10-31 16:21:25.149197,2019-10-31 16:21:25.764707,56,6.704649966666667,s3,ResponseInhibition
LEFT,1416.6666695000001,False,,,,LEFT,317.8621999999791,2019-10-31 16:21:27.198126,2019-10-31 16:21:27.724263,57,6.704649966666667,s3,ResponseInhibition
RIGHT,983.3333353,True,66.6666668,,,RIGHT,336.25066680000896,2019-10-31 16:21:28.724003,2019-10-31 16:21:29.273488,58,6.704649966666667,s3,ResponseInhibition
LEFT,1400.0000028,False,,,,LEFT,375.48429999998234,2019-10-31 16:21:30.695037,2019-10-31 16:21:31.278547,59,6.704649966666667,s3,ResponseInhibition
LEFT,1100.0000022,False,,,,LEFT,495.4407000000174,2019-10-31 16:21:32.388629,2019-10-31 16:21:33.093028,60,6.704649966666667,s3,ResponseInhibition
RIGHT,1200.0000024,False,,,,RIGHT,410.8575999999857,2019-10-31 16:21:34.309383,2019-10-31 16:21:34.927696,61,6.704649966666667,s3,ResponseInhibition
RIGHT,833.333335,True,200.0000004,,,RIGHT,489.62080040002286,2019-10-31 16:21:35.779034,2019-10-31 16:21:36.478798,62,6.704649966666667,s3,ResponseInhibition
RIGHT,1483.3333363,True,66.6666668,,,Time_Max_Exceeded,1500.0612667999856,2019-10-31 16:21:37.989508,2019-10-31 16:21:39.492850,63,6.704649966666667,s3,ResponseInhibition
LEFT,1150.0000023,False,,,,LEFT,588.8615000000073,2019-10-31 16:21:40.654067,2019-10-31 16:21:41.451359,64,6.704649966666667,s3,ResponseInhibition
RIGHT,1350.0000027,False,,,,RIGHT,574.6670999999992,2019-10-31 16:21:42.817941,2019-10-31 16:21:43.600831,65,6.704649966666667,s3,ResponseInhibition
RIGHT,883.3333351,False,,,,RIGHT,825.3315000000043,2019-10-31 16:21:44.493454,2019-10-31 16:21:45.526275,66,6.704649966666667,s3,ResponseInhibition
RIGHT,1316.6666693,True,200.0000004,,,RIGHT,366.1413003999925,2019-10-31 16:21:46.860982,2019-10-31 16:21:47.438735,67,6.704649966666667,s3,ResponseInhibition
RIGHT,750.0000015,True,266.6666672,,,Time_Max_Exceeded,1500.0662671999844,2019-10-31 16:21:48.209077,2019-10-31 16:21:49.713261,68,6.704649966666667,s3,ResponseInhibition
RIGHT,500.000001,False,,,,RIGHT,919.7191000000089,2019-10-31 16:21:50.223896,2019-10-31 16:21:51.351949,69,6.704649966666667,s3,ResponseInhibition
RIGHT,1333.3333360000001,False,,,,RIGHT,641.3686999999868,2019-10-31 16:21:52.702619,2019-10-31 16:21:53.551691,70,6.704649966666667,s3,ResponseInhibition
LEFT,783.3333349000001,True,233.3333338,,,Time_Max_Exceeded,1500.0697338000134,2019-10-31 16:21:54.352567,2019-10-31 16:21:55.856238,71,6.704649966666667,s3,ResponseInhibition
LEFT,1116.6666689,True,133.3333336,,,Time_Max_Exceeded,1500.066233600045,2019-10-31 16:21:56.983998,2019-10-31 16:21:58.488017,72,6.704649966666667,s3,ResponseInhibition
RIGHT,800.0000016,False,,,,RIGHT,461.0023000000183,2019-10-31 16:21:59.298720,2019-10-31 16:21:59.967948,73,6.704649966666667,s3,ResponseInhibition
RIGHT,1050.0000021,False,,,,RIGHT,713.4836999999834,2019-10-31 16:22:01.034267,2019-10-31 16:22:01.955445,74,6.704649966666667,s3,ResponseInhibition
RIGHT,716.6666681,False,,,,RIGHT,431.8652000000043,2019-10-31 16:22:02.680369,2019-10-31 16:22:03.319716,75,6.704649966666667,s3,ResponseInhibition
RIGHT,1033.3333354000001,False,,,,RIGHT,405.07949999999937,2019-10-31 16:22:04.365106,2019-10-31 16:22:04.979450,76,6.704649966666667,s3,ResponseInhibition
RIGHT,1433.3333362,False,,,,RIGHT,473.0743000000075,2019-10-31 16:22:06.429215,2019-10-31 16:22:07.109602,77,6.704649966666667,s3,ResponseInhibition
LEFT,533.3333344,True,33.3333334,,,Time_Max_Exceeded,1500.066833400032,2019-10-31 16:22:07.659768,2019-10-31 16:22:09.163287,78,6.704649966666667,s3,ResponseInhibition
LEFT,500.000001,False,,,,LEFT,449.46939999999813,2019-10-31 16:22:09.674197,2019-10-31 16:22:10.332436,79,6.704649966666667,s3,ResponseInhibition
RIGHT,1466.6666696,False,,,,RIGHT,604.8377000000187,2019-10-31 16:22:11.815529,2019-10-31 16:22:12.629043,80,6.704649966666667,s3,ResponseInhibition
LEFT,983.3333353,False,,,,LEFT,338.35069999997813,2019-10-31 16:22:13.629144,2019-10-31 16:22:14.176036,81,6.704649966666667,s3,ResponseInhibition
RIGHT,1150.0000023,True,183.3333337,,,RIGHT,413.200133699968,2019-10-31 16:22:15.336129,2019-10-31 16:22:15.960634,82,6.704649966666667,s3,ResponseInhibition
LEFT,700.0000014,True,283.3333339,,,Time_Max_Exceeded,1500.0586339000074,2019-10-31 16:22:16.681123,2019-10-31 16:22:18.184867,83,6.704649966666667,s3,ResponseInhibition
RIGHT,566.6666678,False,,,,RIGHT,527.9397000000472,2019-10-31 16:22:18.763431,2019-10-31 16:22:19.498932,84,6.704649966666667,s3,ResponseInhibition
LEFT,933.3333352,False,,,,LEFT,484.76740000000973,2019-10-31 16:22:20.448988,2019-10-31 16:22:21.142642,85,6.704649966666667,s3,ResponseInhibition
RIGHT,1250.0000025,False,,,,RIGHT,394.6234000000004,2019-10-31 16:22:22.403141,2019-10-31 16:22:23.005532,86,6.704649966666667,s3,ResponseInhibition
RIGHT,1383.3333361,False,,,,RIGHT,745.3208999999106,2019-10-31 16:22:24.398253,2019-10-31 16:22:25.350675,87,6.704649966666667,s3,ResponseInhibition
RIGHT,933.3333352,False,,,,RIGHT,415.4119999999466,2019-10-31 16:22:26.293275,2019-10-31 16:22:26.916498,88,6.704649966666667,s3,ResponseInhibition
RIGHT,966.6666686,False,,,,RIGHT,395.59910000002674,2019-10-31 16:22:27.900591,2019-10-31 16:22:28.504190,89,6.704649966666667,s3,ResponseInhibition
RIGHT,1066.6666688,True,166.66666700000002,,,Time_Max_Exceeded,1500.0654670000545,2019-10-31 16:22:29.589093,2019-10-31 16:22:31.092962,90,6.704649966666667,s3,ResponseInhibition
LEFT,666.6666680000001,False,,,,LEFT,783.0200000000787,2019-10-31 16:22:31.770334,2019-10-31 16:22:32.760930,91,6.704649966666667,s3,ResponseInhibition
RIGHT,1166.666669,False,,,,RIGHT,477.35450000004676,2019-10-31 16:22:33.945221,2019-10-31 16:22:34.631223,92,6.704649966666667,s3,ResponseInhibition
LEFT,1016.6666687000001,False,,,,LEFT,305.3933999999572,2019-10-31 16:22:35.664239,2019-10-31 16:22:36.178278,93,6.704649966666667,s3,ResponseInhibition
RIGHT,616.6666679,False,,,,RIGHT,413.8661999999158,2019-10-31 16:22:36.813595,2019-10-31 16:22:37.434823,94,6.704649966666667,s3,ResponseInhibition
LEFT,800.0000016,False,,,,LEFT,419.29690000006303,2019-10-31 16:22:38.243624,2019-10-31 16:22:38.872209,95,6.704649966666667,s3,ResponseInhibition
RIGHT,1300.0000026,False,,,,RIGHT,426.74329999999827,2019-10-31 16:22:40.180164,2019-10-31 16:22:40.815485,96,6.704649966666667,s3,ResponseInhibition
LEFT,1283.3333359,True,216.6666671,,,LEFT,397.03646709999407,2019-10-31 16:22:42.116626,2019-10-31 16:22:42.725017,97,6.704649966666667,s3,ResponseInhibition
LEFT,1350.0000027,True,233.3333338,,,Time_Max_Exceeded,1500.0580337999406,2019-10-31 16:22:44.096335,2019-10-31 16:22:45.599225,98,6.704649966666667,s3,ResponseInhibition
LEFT,566.6666678,False,,,,LEFT,436.3501999999926,2019-10-31 16:22:46.177948,2019-10-31 16:22:46.821714,99,6.704649966666667,s3,ResponseInhibition
RIGHT,950.0000019,False,,,,RIGHT,370.92330000007223,2019-10-31 16:22:47.789593,2019-10-31 16:22:48.368834,100,6.704649966666667,s3,ResponseInhibition
RIGHT,750.0000015,True,0.0,,,Time_Max_Exceeded,1500.1150000000507,2019-10-31 16:22:49.157757,2019-10-31 16:22:50.657869,101,6.704649966666667,s3,ResponseInhibition
RIGHT,1416.6666695000001,False,,,,RIGHT,403.39380000000347,2019-10-31 16:22:52.089872,2019-10-31 16:22:52.709216,102,6.704649966666667,s3,ResponseInhibition
LEFT,900.0000018000001,False,,,,LEFT,619.2406000000119,2019-10-31 16:22:53.619598,2019-10-31 16:22:54.451402,103,6.704649966666667,s3,ResponseInhibition
LEFT,766.6666682,False,,,,LEFT,409.25189999995837,2019-10-31 16:22:55.230347,2019-10-31 16:22:55.850841,104,6.704649966666667,s3,ResponseInhibition
LEFT,1400.0000028,False,,,,LEFT,436.2275999999383,2019-10-31 16:22:57.261080,2019-10-31 16:22:57.907978,105,6.704649966666667,s3,ResponseInhibition
LEFT,566.6666678,False,,,,LEFT,698.3780000000479,2019-10-31 16:22:58.486390,2019-10-31 16:22:59.399424,106,6.704649966666667,s3,ResponseInhibition
LEFT,1466.6666696,False,,,,LEFT,426.17570000004434,2019-10-31 16:23:00.879481,2019-10-31 16:23:01.520777,107,6.704649966666667,s3,ResponseInhibition
RIGHT,866.6666684,False,,,,RIGHT,420.87160000005497,2019-10-31 16:23:02.399451,2019-10-31 16:23:03.034902,108,6.704649966666667,s3,ResponseInhibition
RIGHT,666.6666680000001,True,283.3333339,,,RIGHT,475.9329338999941,2019-10-31 16:23:03.713130,2019-10-31 16:23:04.402475,109,6.704649966666667,s3,ResponseInhibition
RIGHT,800.0000016,False,,,,LEFT,737.6991999999518,2019-10-31 16:23:05.215259,2019-10-31 16:23:06.163059,110,6.704649966666667,s3,ResponseInhibition
RIGHT,716.6666681,False,,,,RIGHT,760.4329000000689,2019-10-31 16:23:06.889125,2019-10-31 16:23:07.859271,111,6.704649966666667,s3,ResponseInhibition
RIGHT,600.0000012,False,,,,RIGHT,584.2674000000443,2019-10-31 16:23:08.468793,2019-10-31 16:23:09.262976,112,6.704649966666667,s3,ResponseInhibition
LEFT,1383.3333361,False,,,,LEFT,614.4058999999515,2019-10-31 16:23:10.663318,2019-10-31 16:23:11.486449,113,6.704649966666667,s3,ResponseInhibition
LEFT,1033.3333354000001,True,283.3333339,,,LEFT,540.0857338999822,2019-10-31 16:23:12.540059,2019-10-31 16:23:13.291610,114,6.704649966666667,s3,ResponseInhibition
LEFT,933.3333352,False,,,,LEFT,617.383200000063,2019-10-31 16:23:14.245370,2019-10-31 16:23:15.071295,115,6.704649966666667,s3,ResponseInhibition
RIGHT,966.6666686,False,,,,RIGHT,547.2449000000097,2019-10-31 16:23:16.055301,2019-10-31 16:23:16.809793,116,6.704649966666667,s3,ResponseInhibition
RIGHT,1050.0000021,False,,,,RIGHT,539.9409999999989,2019-10-31 16:23:17.876515,2019-10-31 16:23:18.626205,117,6.704649966666667,s3,ResponseInhibition
RIGHT,616.6666679,False,,,,RIGHT,508.425099999954,2019-10-31 16:23:19.254135,2019-10-31 16:23:19.972594,118,6.704649966666667,s3,ResponseInhibition
RIGHT,1016.6666687000001,False,,,,RIGHT,414.9079999999685,2019-10-31 16:23:20.999762,2019-10-31 16:23:21.627670,119,6.704649966666667,s3,ResponseInhibition
LEFT,1500.000003,False,,,,LEFT,629.6801999999388,2019-10-31 16:23:23.140944,2019-10-31 16:23:23.981491,120,6.704649966666667,s3,ResponseInhibition
RIGHT,1283.3333359,False,,,,RIGHT,369.67249999997875,2019-10-31 16:23:25.275512,2019-10-31 16:23:25.855835,121,6.704649966666667,s3,ResponseInhibition
LEFT,616.6666679,True,283.3333339,,,LEFT,323.851533900065,2019-10-31 16:23:26.486149,2019-10-31 16:23:27.025842,122,6.704649966666667,s3,ResponseInhibition
RIGHT,1350.0000027,False,,,,RIGHT,441.8015999999625,2019-10-31 16:23:28.392010,2019-10-31 16:23:29.044885,123,6.704649966666667,s3,ResponseInhibition
LEFT,1200.0000024,True,250.0000005,,,Time_Max_Exceeded,1500.0880005000051,2019-10-31 16:23:30.257180,2019-10-31 16:23:31.761485,124,6.704649966666667,s3,ResponseInhibition
LEFT,533.3333344,True,283.3333339,,,LEFT,529.8381338999116,2019-10-31 16:23:32.310050,2019-10-31 16:23:33.054135,125,6.704649966666667,s3,ResponseInhibition
LEFT,716.6666681,False,,,,LEFT,717.3709000001054,2019-10-31 16:23:33.787140,2019-10-31 16:23:34.715794,126,6.704649966666667,s3,ResponseInhibition
RIGHT,1300.0000026,False,,,,RIGHT,771.4772999999013,2019-10-31 16:23:36.029931,2019-10-31 16:23:37.011555,127,6.704649966666667,s3,ResponseInhibition
LEFT,1100.0000022,False,,,,LEFT,710.7767999999623,2019-10-31 16:23:38.123964,2019-10-31 16:23:39.044535,128,6.704649966666667,s3,ResponseInhibition
LEFT,1350.0000027,True,250.0000005,,,Time_Max_Exceeded,1500.1003004999855,2019-10-31 16:23:40.410661,2019-10-31 16:23:41.915487,129,6.704649966666667,s3,ResponseInhibition
RIGHT,950.0000019,False,,,,RIGHT,661.8346000000201,2019-10-31 16:23:42.881110,2019-10-31 16:23:43.752773,130,6.704649966666667,s3,ResponseInhibition
RIGHT,1400.0000028,True,283.3333339,,,Time_Max_Exceeded,1500.1670338999384,2019-10-31 16:23:45.166041,2019-10-31 16:23:46.670912,131,6.704649966666667,s3,ResponseInhibition
LEFT,1150.0000023,False,,,,LEFT,555.539500000009,2019-10-31 16:23:47.835195,2019-10-31 16:23:48.600192,132,6.704649966666667,s3,ResponseInhibition
LEFT,700.0000014,True,283.3333339,,,Time_Max_Exceeded,1500.0732338999933,2019-10-31 16:23:49.312286,2019-10-31 16:23:50.816905,133,6.704649966666667,s3,ResponseInhibition
LEFT,1133.3333356,False,,,,LEFT,977.8974999999264,2019-10-31 16:23:51.962865,2019-10-31 16:23:53.149183,134,6.704649966666667,s3,ResponseInhibition
RIGHT,1466.6666696,False,,,,RIGHT,519.9883999999884,2019-10-31 16:23:54.633735,2019-10-31 16:23:55.363182,135,6.704649966666667,s3,ResponseInhibition
RIGHT,850.0000017,False,,,,RIGHT,683.0252000000883,2019-10-31 16:23:56.223060,2019-10-31 16:23:57.115229,136,6.704649966666667,s3,ResponseInhibition
RIGHT,1333.3333360000001,False,,,,RIGHT,510.73570000005475,2019-10-31 16:23:58.458104,2019-10-31 16:23:59.177812,137,6.704649966666667,s3,ResponseInhibition
LEFT,1166.666669,False,,,,LEFT,607.4639000000843,2019-10-31 16:24:00.353303,2019-10-31 16:24:01.169425,138,6.704649966666667,s3,ResponseInhibition
LEFT,1433.3333362,True,283.3333339,,,Time_Max_Exceeded,1500.0600338999811,2019-10-31 16:24:02.622655,2019-10-31 16:24:04.126691,139,6.704649966666667,s3,ResponseInhibition
RIGHT,833.333335,True,283.3333339,,,RIGHT,531.6048338999872,2019-10-31 16:24:04.972958,2019-10-31 16:24:05.716307,140,6.704649966666667,s3,ResponseInhibition
RIGHT,983.3333353,True,283.3333339,,,Time_Max_Exceeded,1500.0628339000423,2019-10-31 16:24:06.722517,2019-10-31 16:24:08.226038,141,6.704649966666667,s3,ResponseInhibition
LEFT,1483.3333363,False,,,,LEFT,798.9741999999751,2019-10-31 16:24:09.720975,2019-10-31 16:24:10.727009,142,6.704649966666667,s3,ResponseInhibition
RIGHT,1100.0000022,False,,,,RIGHT,573.7646999999697,2019-10-31 16:24:11.844287,2019-10-31 16:24:12.625785,143,6.704649966666667,s3,ResponseInhibition
LEFT,500.000001,False,,,,LEFT,632.3607000000493,2019-10-31 16:24:13.144415,2019-10-31 16:24:13.983922,144,6.704649966666667,s3,ResponseInhibition
RIGHT,1483.3333363,True,283.3333339,,,Time_Max_Exceeded,1500.0617338999655,2019-10-31 16:24:15.487560,2019-10-31 16:24:16.990908,145,6.704649966666667,s3,ResponseInhibition
RIGHT,1433.3333362,False,,,,RIGHT,498.14200000002984,2019-10-31 16:24:18.436176,2019-10-31 16:24:19.143015,146,6.704649966666667,s3,ResponseInhibition
RIGHT,883.3333351,False,,,,RIGHT,662.6201999999921,2019-10-31 16:24:20.035591,2019-10-31 16:24:20.906194,147,6.704649966666667,s3,ResponseInhibition
RIGHT,533.3333344,False,,,,RIGHT,548.7308999998959,2019-10-31 16:24:21.455934,2019-10-31 16:24:22.213256,148,6.704649966666667,s3,ResponseInhibition
RIGHT,783.3333349000001,False,,,,RIGHT,389.11989999996877,2019-10-31 16:24:23.016053,2019-10-31 16:24:23.612811,149,6.704649966666667,s3,ResponseInhibition
LEFT,683.3333347,False,,,,LEFT,1235.9564000000773,2019-10-31 16:24:24.311931,2019-10-31 16:24:25.755756,150,6.704649966666667,s3,ResponseInhibition
RIGHT,1133.3333356,False,,,,RIGHT,551.0702000000265,2019-10-31 16:24:26.898359,2019-10-31 16:24:27.658436,151,6.704649966666667,s3,ResponseInhibition
RIGHT,1150.0000023,True,283.3333339,,,RIGHT,418.07023390000717,2019-10-31 16:24:28.826412,2019-10-31 16:24:29.455374,152,6.704649966666667,s3,ResponseInhibition
LEFT,1316.6666693,False,,,,LEFT,640.9856000000218,2019-10-31 16:24:30.782744,2019-10-31 16:24:31.632515,153,6.704649966666667,s3,ResponseInhibition
RIGHT,700.0000014,False,,,,RIGHT,424.20929999991586,2019-10-31 16:24:32.349418,2019-10-31 16:24:32.981861,154,6.704649966666667,s3,ResponseInhibition
LEFT,866.6666684,True,283.3333339,,,LEFT,392.06963390003233,2019-10-31 16:24:33.868318,2019-10-31 16:24:34.471648,155,6.704649966666667,s3,ResponseInhibition
LEFT,1216.6666691,False,,,,LEFT,516.0613999998986,2019-10-31 16:24:35.711508,2019-10-31 16:24:36.435461,156,6.704649966666667,s3,ResponseInhibition
LEFT,983.3333353,False,,,,LEFT,631.1057000000346,2019-10-31 16:24:37.436728,2019-10-31 16:24:38.276733,157,6.704649966666667,s3,ResponseInhibition
LEFT,950.0000019,True,283.3333339,,,LEFT,435.60053389998296,2019-10-31 16:24:39.247136,2019-10-31 16:24:39.896173,158,6.704649966666667,s3,ResponseInhibition
LEFT,1283.3333359,True,283.3333339,,,Time_Max_Exceeded,1500.0570338999887,2019-10-31 16:24:41.194019,2019-10-31 16:24:42.697720,159,6.704649966666667,s3,ResponseInhibition
LEFT,516.6666677000001,False,,,,LEFT,628.302500000018,2019-10-31 16:24:43.225306,2019-10-31 16:24:44.061788,160,6.704649966666667,s3,ResponseInhibition
LEFT,966.6666686,False,,,,LEFT,612.3158999999987,2019-10-31 16:24:45.045176,2019-10-31 16:24:45.866251,161,6.704649966666667,s3,ResponseInhibition
LEFT,850.0000017,False,,,,LEFT,734.4403999999258,2019-10-31 16:24:46.732968,2019-10-31 16:24:47.674921,162,6.704649966666667,s3,ResponseInhibition
RIGHT,1033.3333354000001,False,,,,RIGHT,683.7236000000075,2019-10-31 16:24:48.725260,2019-10-31 16:24:49.618413,163,6.704649966666667,s3,ResponseInhibition
RIGHT,583.3333345,True,283.3333339,,,Time_Max_Exceeded,1500.0719338999852,2019-10-31 16:24:50.220613,2019-10-31 16:24:51.724477,164,6.704649966666667,s3,ResponseInhibition
RIGHT,900.0000018000001,True,283.3333339,,,RIGHT,552.4206339000239,2019-10-31 16:24:52.637497,2019-10-31 16:24:53.400503,165,6.704649966666667,s3,ResponseInhibition
RIGHT,1200.0000024,False,,,,RIGHT,1291.0976999999093,2019-10-31 16:24:54.623644,2019-10-31 16:24:56.121572,166,6.704649966666667,s3,ResponseInhibition
LEFT,1016.6666687000001,False,,,,LEFT,788.1638999999723,2019-10-31 16:24:57.155219,2019-10-31 16:24:58.150676,167,6.704649966666667,s3,ResponseInhibition
RIGHT,766.6666682,False,,,,RIGHT,973.9848000000393,2019-10-31 16:24:58.935636,2019-10-31 16:25:00.119063,168,6.704649966666667,s3,ResponseInhibition
RIGHT,500.000001,False,,,,RIGHT,641.4326999999957,2019-10-31 16:25:00.628757,2019-10-31 16:25:01.478794,169,6.704649966666667,s3,ResponseInhibition
LEFT,583.3333345,False,,,,LEFT,786.3783999999896,2019-10-31 16:25:02.071740,2019-10-31 16:25:03.066543,170,6.704649966666667,s3,ResponseInhibition
RIGHT,1316.6666693,True,283.3333339,,,RIGHT,370.51183390005,2019-10-31 16:25:04.394222,2019-10-31 16:25:04.975692,171,6.704649966666667,s3,ResponseInhibition
LEFT,600.0000012,False,,,,LEFT,755.3274000000556,2019-10-31 16:25:05.588056,2019-10-31 16:25:06.552034,172,6.704649966666667,s3,ResponseInhibition
RIGHT,1216.6666691,False,,,,RIGHT,966.5218999999752,2019-10-31 16:25:07.786524,2019-10-31 16:25:08.962251,173,6.704649966666667,s3,ResponseInhibition
LEFT,650.0000013,False,,,,LEFT,705.2224999999908,2019-10-31 16:25:09.630232,2019-10-31 16:25:10.544117,174,6.704649966666667,s3,ResponseInhibition
RIGHT,650.0000013,False,,,,RIGHT,707.7104999999619,2019-10-31 16:25:11.210363,2019-10-31 16:25:12.126281,175,6.704649966666667,s3,ResponseInhibition
LEFT,1116.6666689,True,283.3333339,,,Time_Max_Exceeded,1500.0604338999574,2019-10-31 16:25:13.262088,2019-10-31 16:25:14.766361,176,6.704649966666667,s3,ResponseInhibition
RIGHT,683.3333347,False,,,,RIGHT,670.6237000000783,2019-10-31 16:25:15.460824,2019-10-31 16:25:16.339463,177,6.704649966666667,s3,ResponseInhibition
LEFT,833.333335,False,,,,LEFT,1095.5061000000796,2019-10-31 16:25:17.186215,2019-10-31 16:25:18.490120,178,6.704649966666667,s3,ResponseInhibition
RIGHT,1383.3333361,False,,,,RIGHT,967.4369000000524,2019-10-31 16:25:19.891051,2019-10-31 16:25:21.066871,179,6.704649966666667,s3,ResponseInhibition
LEFT,1066.6666688,False,,,,LEFT,709.5602999999073,2019-10-31 16:25:22.151935,2019-10-31 16:25:23.069046,180,6.704649966666667,s3,ResponseInhibition
LEFT,1300.0000026,False,,,,LEFT,587.6610000000255,2019-10-31 16:25:24.386914,2019-10-31 16:25:25.182702,181,6.704649966666667,s3,ResponseInhibition
RIGHT,1116.6666689,False,,,,RIGHT,651.3466000000108,2019-10-31 16:25:26.316821,2019-10-31 16:25:27.176159,182,6.704649966666667,s3,ResponseInhibition
RIGHT,516.6666677000001,True,283.3333339,,,RIGHT,623.627733899948,2019-10-31 16:25:27.711810,2019-10-31 16:25:28.546839,183,6.704649966666667,s3,ResponseInhibition
RIGHT,1250.0000025,False,,,,RIGHT,620.4946000000291,2019-10-31 16:25:29.824811,2019-10-31 16:25:30.653049,184,6.704649966666667,s3,ResponseInhibition
LEFT,1416.6666695000001,False,,,,LEFT,705.7350999999699,2019-10-31 16:25:32.085428,2019-10-31 16:25:32.998652,185,6.704649966666667,s3,ResponseInhibition
RIGHT,566.6666678,False,,,,RIGHT,789.1647000000148,2019-10-31 16:25:33.583321,2019-10-31 16:25:34.579836,186,6.704649966666667,s3,ResponseInhibition
LEFT,1050.0000021,False,,,,LEFT,711.1945999999989,2019-10-31 16:25:35.638130,2019-10-31 16:25:36.557514,187,6.704649966666667,s3,ResponseInhibition
RIGHT,933.3333352,False,,,,RIGHT,674.7222999999849,2019-10-31 16:25:37.509433,2019-10-31 16:25:38.392357,188,6.704649966666667,s3,ResponseInhibition
RIGHT,1166.666669,False,,,,RIGHT,669.5295999999189,2019-10-31 16:25:39.576096,2019-10-31 16:25:40.453781,189,6.704649966666667,s3,ResponseInhibition
LEFT,783.3333349000001,True,283.3333339,,,Time_Max_Exceeded,1500.0612339000236,2019-10-31 16:25:41.257729,2019-10-31 16:25:42.760888,190,6.704649966666667,s3,ResponseInhibition
LEFT,883.3333351,False,,,,LEFT,723.7257000000454,2019-10-31 16:25:43.655607,2019-10-31 16:25:44.588347,191,6.704649966666667,s3,ResponseInhibition
LEFT,800.0000016,False,,,,LEFT,446.07869999993,2019-10-31 16:25:45.397254,2019-10-31 16:25:46.051076,192,6.704649966666667,s3,ResponseInhibition
LEFT,1233.3333358,False,,,,LEFT,649.8441999999613,2019-10-31 16:25:47.303111,2019-10-31 16:25:48.160587,193,6.704649966666667,s3,ResponseInhibition
LEFT,750.0000015,False,,,,LEFT,528.6576999999397,2019-10-31 16:25:48.928185,2019-10-31 16:25:49.664965,194,6.704649966666667,s3,ResponseInhibition
LEFT,1333.3333360000001,False,,,,LEFT,530.7590999999547,2019-10-31 16:25:51.007210,2019-10-31 16:25:51.746764,195,6.704649966666667,s3,ResponseInhibition
LEFT,666.6666680000001,False,,,,LEFT,469.62389999998777,2019-10-31 16:25:52.422044,2019-10-31 16:25:53.099539,196,6.704649966666667,s3,ResponseInhibition
RIGHT,1233.3333358,True,283.3333339,,,Time_Max_Exceeded,1500.0669338999978,2019-10-31 16:25:54.352702,2019-10-31 16:25:55.856605,197,6.704649966666667,s3,ResponseInhibition
RIGHT,1500.000003,False,,,,RIGHT,666.1576999999852,2019-10-31 16:25:57.366678,2019-10-31 16:25:58.241316,198,6.704649966666667,s3,ResponseInhibition
LEFT,1250.0000025,False,,,,LEFT,356.21900000001006,2019-10-31 16:25:59.508176,2019-10-31 16:26:00.073065,199,6.704649966666667,s3,ResponseInhibition
RIGHT,1066.6666688,True,283.3333339,,,RIGHT,560.0724338999862,2019-10-31 16:26:01.148965,2019-10-31 16:26:01.921234,200,6.704649966666667,s3,ResponseInhibition
