Stimulus_Side,ITI,Previous_Response,Previous_RT,Response,RT,Trial_Time_Onset,Trial_Time_End,Trial_Order,Participant,Task
RIGHT,666.666668,"('Time_Max_Exceeded', 666.7206999999848)",0,RIGHT,493.9669,41:29.1,41:29.8,1,s4,ResponseSelection
RIGHT,1200.000002,"('Time_Max_Exceeded', 0.6212000000118678)",0,RIGHT,352.2354,41:31.0,41:31.6,2,s4,ResponseSelection
RIGHT,583.3333345,"('Time_Max_Exceeded', 583.5870000000227)",0,RIGHT,343.4701,41:32.2,41:32.7,3,s4,ResponseSelection
LEFT,1300.000003,"('Time_Max_Exceeded', 0.16089999999735483)",0,LEFT,328.0438,41:34.0,41:34.6,4,s4,ResponseSelection
RIGHT,1116.666669,"('Time_Max_Exceeded', 1117.124700000005)",0,RIGHT,530.8588,41:35.7,41:36.4,5,s4,ResponseSelection
LEFT,1283.333336,"('Time_Max_Exceeded', 1283.6271999999838)",0,LEFT,321.2537,41:37.7,41:38.2,6,s4,ResponseSelection
LEFT,1400.000003,"('Time_Max_Exceeded', 1401.7531000000076)",0,LEFT,367.6341,41:39.7,41:40.2,7,s4,ResponseSelection
LEFT,1116.666669,"('Time_Max_Exceeded', 1116.8392000000154)",0,LEFT,374.4302,41:41.4,41:41.9,8,s4,ResponseSelection
RIGHT,1283.333336,"('Time_Max_Exceeded', 1283.6677999999893)",0,RIGHT,281.317,41:43.2,41:43.7,9,s4,ResponseSelection
LEFT,600.0000012,"('Time_Max_Exceeded', 600.3021999999874)",0,LEFT,368.8804,41:44.3,41:44.9,10,s4,ResponseSelection
LEFT,1383.333336,"('Time_Max_Exceeded', 1383.7684000000081)",0,LEFT,332.6054,41:46.3,41:46.9,11,s4,ResponseSelection
LEFT,1200.000002,"('Time_Max_Exceeded', 1200.260500000013)",0,LEFT,379.9389,41:48.1,41:48.7,12,s4,ResponseSelection
LEFT,1483.333336,"('Time_Max_Exceeded', 1483.6601000000087)",0,LEFT,357.4686,41:50.2,41:50.7,13,s4,ResponseSelection
RIGHT,533.3333344,"('Time_Max_Exceeded', 0.682100000005903)",0,RIGHT,392.7875,41:51.3,41:51.9,14,s4,ResponseSelection
RIGHT,833.333335,"('Time_Max_Exceeded', 833.656000000019)",0,RIGHT,344.447,41:52.7,41:53.3,15,s4,ResponseSelection
RIGHT,1333.333336,"('Time_Max_Exceeded', 1333.6572000000047)",0,RIGHT,340.4637,41:54.6,41:55.2,16,s4,ResponseSelection
RIGHT,850.0000017,"('Time_Max_Exceeded', 850.155199999989)",0,RIGHT,346.4248,41:56.0,41:56.6,17,s4,ResponseSelection
RIGHT,1050.000002,"('Time_Max_Exceeded', 0.1500999999848318)",0,RIGHT,318.8587,41:57.6,41:58.2,18,s4,ResponseSelection
RIGHT,1500.000003,"('Time_Max_Exceeded', 1500.2602000000138)",0,RIGHT,322.6842,41:59.7,42:00.2,19,s4,ResponseSelection
RIGHT,800.0000016,"('Time_Max_Exceeded', 0.09079999998107269)",0,RIGHT,332.0556,42:01.0,42:01.6,20,s4,ResponseSelection
LEFT,766.6666682,"('Time_Max_Exceeded', 766.8160000000057)",0,LEFT,378.4826,42:02.3,42:02.9,21,s4,ResponseSelection
RIGHT,1133.333336,"('Time_Max_Exceeded', 1133.7997999999914)",0,RIGHT,306.7528,42:04.1,42:04.6,22,s4,ResponseSelection
RIGHT,1433.333336,"('Time_Max_Exceeded', 1435.4067999999813)",0,RIGHT,334.6346,42:06.0,42:06.6,23,s4,ResponseSelection
LEFT,1416.66667,"('Time_Max_Exceeded', 1416.9237000000123)",0,LEFT,371.7057,42:08.0,42:08.6,24,s4,ResponseSelection
RIGHT,1033.333335,"('Time_Max_Exceeded', 1034.8178000000132)",0,RIGHT,364.9176,42:09.6,42:10.2,25,s4,ResponseSelection
RIGHT,1166.666669,"('Time_Max_Exceeded', 1166.966599999995)",0,RIGHT,355.1452,42:11.4,42:12.0,26,s4,ResponseSelection
RIGHT,1300.000003,"('Time_Max_Exceeded', 1300.2812000000006)",0,RIGHT,317.6284,42:13.3,42:13.8,27,s4,ResponseSelection
LEFT,966.6666686,"('Time_Max_Exceeded', 966.9989999999871)",0,LEFT,369.3032,42:14.8,42:15.3,28,s4,ResponseSelection
RIGHT,950.0000019,"('Time_Max_Exceeded', 0.2614999999934753)",0,RIGHT,299.0773,42:16.3,42:16.8,29,s4,ResponseSelection
RIGHT,766.6666682,"('Time_Max_Exceeded', 766.9552000000124)",0,RIGHT,350.4136,42:17.6,42:18.2,30,s4,ResponseSelection
LEFT,1466.66667,"('Time_Max_Exceeded', 0.36020000001713015)",0,LEFT,350.2485,42:19.6,42:20.2,31,s4,ResponseSelection
RIGHT,1483.333336,"('Time_Max_Exceeded', 1486.2121000000172)",0,RIGHT,310.7295,42:21.7,42:22.2,32,s4,ResponseSelection
LEFT,700.0000014,"('Time_Max_Exceeded', 700.3816000000143)",0,LEFT,375.4808,42:22.9,42:23.5,33,s4,ResponseSelection
RIGHT,1100.000002,"('Time_Max_Exceeded', 0.11029999998868334)",0,RIGHT,297.9159,42:24.6,42:25.1,34,s4,ResponseSelection
RIGHT,1233.333336,"('Time_Max_Exceeded', 1233.5246000000097)",0,RIGHT,391.9946,42:26.4,42:27.0,35,s4,ResponseSelection
LEFT,1333.333336,"('Time_Max_Exceeded', 1333.6579999999856)",0,LEFT,344.2946,42:28.3,42:28.8,36,s4,ResponseSelection
LEFT,533.3333344,"('Time_Max_Exceeded', 533.7642000000073)",0,LEFT,497.4699,42:29.4,42:30.1,37,s4,ResponseSelection
LEFT,1216.666669,"('Time_Max_Exceeded', 1216.9971000000146)",0,LEFT,370.2443,42:31.3,42:31.9,38,s4,ResponseSelection
RIGHT,1400.000003,"('Time_Max_Exceeded', 1400.2596999999923)",0,RIGHT,329.5286,42:33.3,42:33.9,39,s4,ResponseSelection
RIGHT,900.0000018,"('Time_Max_Exceeded', 0.4691000000036638)",0,RIGHT,345.7301,42:34.8,42:35.3,40,s4,ResponseSelection
RIGHT,700.0000014,"('Time_Max_Exceeded', 700.3013000000067)",0,RIGHT,339.4999,42:36.0,42:36.6,41,s4,ResponseSelection
LEFT,1500.000003,"('Time_Max_Exceeded', 1501.6481000000113)",0,LEFT,349.1982,42:38.1,42:38.7,42,s4,ResponseSelection
RIGHT,616.6666679,"('Time_Max_Exceeded', 616.9912000000011)",0,RIGHT,367.8621,42:39.3,42:39.9,43,s4,ResponseSelection
LEFT,1033.333335,"('Time_Max_Exceeded', 1033.65119999998)",0,LEFT,342.742,42:40.9,42:41.5,44,s4,ResponseSelection
LEFT,716.6666681,"('Time_Max_Exceeded', 716.8139000000053)",0,LEFT,413.1205,42:42.2,42:42.8,45,s4,ResponseSelection
LEFT,1050.000002,"('Time_Max_Exceeded', 1053.1058999999914)",0,LEFT,336.4843,42:43.9,42:44.4,46,s4,ResponseSelection
RIGHT,1466.66667,"('Time_Max_Exceeded', 1466.9983999999943)",0,RIGHT,338.0245,42:45.9,42:46.4,47,s4,ResponseSelection
RIGHT,1216.666669,"('Time_Max_Exceeded', 0.5844000000081451)",0,RIGHT,395.0226,42:47.7,42:48.3,48,s4,ResponseSelection
LEFT,583.3333345,"('Time_Max_Exceeded', 583.6675999999841)",0,LEFT,362.2316,42:48.9,42:49.4,49,s4,ResponseSelection
RIGHT,750.0000015,"('Time_Max_Exceeded', 750.2618999999981)",0,RIGHT,394.5731,42:50.2,42:50.8,50,s4,ResponseSelection
LEFT,866.6666684,"('Time_Max_Exceeded', 866.8770999999822)",0,LEFT,314.7891,42:51.7,42:52.2,51,s4,ResponseSelection
LEFT,1350.000003,"('Time_Max_Exceeded', 1350.327099999987)",0,LEFT,377.1464,42:53.6,42:54.1,52,s4,ResponseSelection
LEFT,1150.000002,"('Time_Max_Exceeded', 1150.1762999999983)",0,LEFT,336.2589,42:55.3,42:55.8,53,s4,ResponseSelection
LEFT,616.6666679,"('Time_Max_Exceeded', 617.0845999999983)",0,LEFT,349.8099,42:56.5,42:57.0,54,s4,ResponseSelection
LEFT,666.666668,"('Time_Max_Exceeded', 666.9293999999866)",0,LEFT,319.405,42:57.7,42:58.2,55,s4,ResponseSelection
RIGHT,566.6666678,"('Time_Max_Exceeded', 0.36449999998922067)",0,RIGHT,407.0073,42:58.8,42:59.4,56,s4,ResponseSelection
LEFT,1166.666669,"('Time_Max_Exceeded', 1166.8115999999884)",0,LEFT,331.0955,43:00.6,43:01.2,57,s4,ResponseSelection
RIGHT,1416.66667,"('Time_Max_Exceeded', 1416.9373999999948)",0,RIGHT,356.6934,43:02.6,43:03.1,58,s4,ResponseSelection
LEFT,1316.666669,"('Time_Max_Exceeded', 1317.0438999999874)",0,LEFT,326.3371,43:04.5,43:05.0,59,s4,ResponseSelection
RIGHT,1250.000003,"('Time_Max_Exceeded', 1250.3393000000074)",0,RIGHT,381.1387,43:06.3,43:06.9,60,s4,ResponseSelection
LEFT,566.6666678,"('Time_Max_Exceeded', 566.9947000000093)",0,LEFT,382.3446,43:07.4,43:08.0,61,s4,ResponseSelection
LEFT,983.3333353,"('Time_Max_Exceeded', 983.8797999999827)",0,LEFT,372.8096,43:09.0,43:09.6,62,s4,ResponseSelection
RIGHT,1350.000003,"('Time_Max_Exceeded', 0.09879999998929634)",0,RIGHT,320.8451,43:11.0,43:11.5,63,s4,ResponseSelection
LEFT,933.3333352,"('Time_Max_Exceeded', 933.2389000000205)",0,LEFT,304.3898,43:12.4,43:13.0,64,s4,ResponseSelection
LEFT,850.0000017,"('Time_Max_Exceeded', 850.2577999999801)",0,LEFT,489.4232,43:13.8,43:14.5,65,s4,ResponseSelection
LEFT,650.0000013,"('Time_Max_Exceeded', 650.162899999998)",0,LEFT,337.0374,43:15.2,43:15.7,66,s4,ResponseSelection
LEFT,750.0000015,"('Time_Max_Exceeded', 0.22469999998975254)",0,LEFT,309.7141,43:16.5,43:17.0,67,s4,ResponseSelection
LEFT,1016.666669,"('Time_Max_Exceeded', 1017.8324999999973)",0,LEFT,308.857,43:18.0,43:18.5,68,s4,ResponseSelection
LEFT,516.6666677,"('Time_Max_Exceeded', 0.36599999998543353)",0,LEFT,330.8819,43:19.1,43:19.6,69,s4,ResponseSelection
RIGHT,1150.000002,"('Time_Max_Exceeded', 1150.2603000000136)",0,RIGHT,580.9003,43:20.8,43:21.6,70,s4,ResponseSelection
RIGHT,966.6666686,"('Time_Max_Exceeded', 966.9193000000007)",0,RIGHT,443.5999,43:22.5,43:23.2,71,s4,ResponseSelection
RIGHT,516.6666677,"('Time_Max_Exceeded', 0.6569999999896936)",0,RIGHT,383.9569,43:23.7,43:24.3,72,s4,ResponseSelection
RIGHT,1066.666669,"('Time_Max_Exceeded', 1068.5949999999877)",0,RIGHT,329.2489,43:25.4,43:25.9,73,s4,ResponseSelection
RIGHT,1016.666669,"('Time_Max_Exceeded', 1016.8098000000043)",0,RIGHT,307.9883,43:27.0,43:27.5,74,s4,ResponseSelection
LEFT,1133.333336,"('Time_Max_Exceeded', 1133.8518000000022)",0,LEFT,363.2574,43:28.6,43:29.2,75,s4,ResponseSelection
LEFT,1233.333336,"('Time_Max_Exceeded', 1233.783499999987)",0,LEFT,365.6092,43:30.4,43:31.0,76,s4,ResponseSelection
RIGHT,716.6666681,"('Time_Max_Exceeded', 716.9950000000256)",0,RIGHT,408.6648,43:31.8,43:32.4,77,s4,ResponseSelection
LEFT,833.333335,"('Time_Max_Exceeded', 833.6759999999686)",0,LEFT,316.3344,43:33.2,43:33.7,78,s4,ResponseSelection
RIGHT,933.3333352,"('Time_Max_Exceeded', 933.6447999999677)",0,RIGHT,387.9518,43:34.7,43:35.3,79,s4,ResponseSelection
LEFT,500.000001,"('Time_Max_Exceeded', 500.25189999996655)",0,RIGHT,364.1766,43:35.8,43:36.4,80,s4,ResponseSelection
LEFT,900.0000018,"('Time_Max_Exceeded', 900.4726000000005)",0,LEFT,410.0054,43:37.3,43:37.9,81,s4,ResponseSelection
LEFT,1066.666669,"('Time_Max_Exceeded', 1066.8327000000204)",0,LEFT,374.1723,43:39.0,43:39.6,82,s4,ResponseSelection
RIGHT,600.0000012,"('Time_Max_Exceeded', 600.3400999999826)",0,RIGHT,698.4354,43:40.2,43:41.1,83,s4,ResponseSelection
RIGHT,783.3333349,"('Time_Max_Exceeded', 783.6738999999966)",0,RIGHT,351.2455,43:41.9,43:42.4,84,s4,ResponseSelection
LEFT,883.3333351,"('Time_Max_Exceeded', 883.5964000000445)",0,LEFT,357.723,43:43.3,43:43.9,85,s4,ResponseSelection
RIGHT,1316.666669,"('Time_Max_Exceeded', 1318.6435000000074)",0,RIGHT,398.6696,43:45.2,43:45.8,86,s4,ResponseSelection
LEFT,783.3333349,"('Time_Max_Exceeded', 0.1277999999729218)",0,LEFT,302.2248,43:46.6,43:47.1,87,s4,ResponseSelection
LEFT,1100.000002,"('Time_Max_Exceeded', 1100.3511999999773)",0,LEFT,395.8913,43:48.2,43:48.8,88,s4,ResponseSelection
RIGHT,650.0000013,"('Time_Max_Exceeded', 650.3792999999973)",0,RIGHT,356.9885,43:49.5,43:50.1,89,s4,ResponseSelection
RIGHT,1383.333336,"('Time_Max_Exceeded', 1383.8395000000219)",0,RIGHT,388.8428,43:51.5,43:52.1,90,s4,ResponseSelection
RIGHT,683.3333347,"('Time_Max_Exceeded', 683.6869000000547)",0,RIGHT,318.2077,43:52.8,43:53.3,91,s4,ResponseSelection
RIGHT,883.3333351,"('Time_Max_Exceeded', 883.6377000000084)",0,RIGHT,318.5381,43:54.2,43:54.7,92,s4,ResponseSelection
LEFT,800.0000016,"('Time_Max_Exceeded', 0.23240000001578665)",0,LEFT,350.591,43:55.5,43:56.1,93,s4,ResponseSelection
LEFT,1433.333336,"('Time_Max_Exceeded', 1433.6693000000196)",0,LEFT,423.0234,43:57.5,43:58.2,94,s4,ResponseSelection
LEFT,950.0000019,"('Time_Max_Exceeded', 0.5045999999993)",0,LEFT,356.2327,43:59.1,43:59.7,95,s4,ResponseSelection
LEFT,683.3333347,"('Time_Max_Exceeded', 683.7203000000045)",0,LEFT,345.1135,44:00.4,44:00.9,96,s4,ResponseSelection
RIGHT,983.3333353,"('Time_Max_Exceeded', 983.5977000000184)",0,RIGHT,330.5629,44:01.9,44:02.5,97,s4,ResponseSelection
LEFT,1250.000003,"('Time_Max_Exceeded', 1250.2932000000442)",0,LEFT,444.4571,44:03.7,44:04.4,98,s4,ResponseSelection
RIGHT,866.6666684,"('Time_Max_Exceeded', 866.9353999999885)",0,RIGHT,303.8997,44:05.3,44:05.8,99,s4,ResponseSelection
RIGHT,500.000001,"('Time_Max_Exceeded', 500.17049999996743)",0,RIGHT,442.7796,44:06.3,44:06.9,100,s4,ResponseSelection
