Stimulus_Side,ITI,Stop_Signal,Stop_Signal_RT,Previous_Response,Previous_RT,Response,RT,Trial_Time_Onset,Trial_Time_End,Trial_Order,Participant,Task
LEFT,1483.333336,FALSE,,"('Time_Max_Exceeded', 0.3713000000402644)",0,LEFT,448.3401,44:50.8,44:51.4,1,s4,ResponseInhibition
RIGHT,1216.666669,FALSE,,"('Time_Max_Exceeded', 1217.0081999999525)",0,RIGHT,496.9827,44:52.7,44:53.4,2,s4,ResponseInhibition
RIGHT,566.6666678,FALSE,,"('Time_Max_Exceeded', 0.426500000003216)",0,RIGHT,381.979,44:53.9,44:54.5,3,s4,ResponseInhibition
RIGHT,983.3333353,TRUE,16.6666667,"('Time_Max_Exceeded', 983.6624000000143)",0,Time_Max_Exceeded,1500.058767,44:55.5,44:57.0,4,s4,ResponseInhibition
RIGHT,933.3333352,FALSE,,"('Time_Max_Exceeded', 933.3817000000408)",0,RIGHT,392.4651,44:58.0,44:58.6,5,s4,ResponseInhibition
RIGHT,800.0000016,FALSE,,"('Time_Max_Exceeded', 802.0915000000173)",0,RIGHT,335.0836,44:59.4,44:59.9,6,s4,ResponseInhibition
LEFT,1433.333336,TRUE,33.3333334,"('Time_Max_Exceeded', 0.14989999999670545)",0,Time_Max_Exceeded,1500.111733,45:01.4,45:02.9,7,s4,ResponseInhibition
LEFT,1400.000003,FALSE,,"('Time_Max_Exceeded', 0.23550000003069727)",0,LEFT,502.8183,45:04.3,45:05.0,8,s4,ResponseInhibition
LEFT,933.3333352,FALSE,,"('Time_Max_Exceeded', 933.6160999999947)",0,LEFT,429.6648,45:05.9,45:06.6,9,s4,ResponseInhibition
LEFT,750.0000015,FALSE,,"('Time_Max_Exceeded', 750.3242999999884)",0,LEFT,394.2183,45:07.4,45:08.0,10,s4,ResponseInhibition
RIGHT,583.3333345,TRUE,183.3333337,"('Time_Max_Exceeded', 583.4987999999726)",0,Time_Max_Exceeded,1500.056834,45:08.5,45:10.0,11,s4,ResponseInhibition
RIGHT,833.333335,TRUE,216.6666671,"('Time_Max_Exceeded', 833.5241000000337)",0,RIGHT,498.3229671,45:10.9,45:11.6,12,s4,ResponseInhibition
RIGHT,1033.333335,FALSE,,"('Time_Max_Exceeded', 1034.4642000000022)",0,RIGHT,861.3216,45:12.7,45:13.7,13,s4,ResponseInhibition
LEFT,1116.666669,TRUE,266.6666672,"('Time_Max_Exceeded', 1116.9609000000378)",0,LEFT,475.6739672,45:14.9,45:15.5,14,s4,ResponseInhibition
RIGHT,966.6666686,FALSE,,"('Time_Max_Exceeded', 966.9173000000342)",0,RIGHT,692.7329,45:16.5,45:17.4,15,s4,ResponseInhibition
LEFT,566.6666678,FALSE,,"('Time_Max_Exceeded', 567.8102999999624)",0,LEFT,627.4712,45:18.0,45:18.8,16,s4,ResponseInhibition
RIGHT,516.6666677,FALSE,,"('Time_Max_Exceeded', 516.9978999999785)",0,RIGHT,672.5308,45:19.4,45:20.2,17,s4,ResponseInhibition
RIGHT,533.3333344,TRUE,150.0000003,"('Time_Max_Exceeded', 536.4110999999525)",0,RIGHT,443.3296003,45:20.8,45:21.5,18,s4,ResponseInhibition
RIGHT,1200.000002,FALSE,,"('Time_Max_Exceeded', 0.05020000003241876)",0,RIGHT,575.7698,45:22.7,45:23.4,19,s4,ResponseInhibition
LEFT,700.0000014,TRUE,100.0000002,"('Time_Max_Exceeded', 700.1597999999944)",0,Time_Max_Exceeded,1500.0482,45:24.2,45:25.7,20,s4,ResponseInhibition
LEFT,1350.000003,TRUE,200.0000004,"('Time_Max_Exceeded', 1350.0520999999708)",0,Time_Max_Exceeded,1500.0577,45:27.0,45:28.5,21,s4,ResponseInhibition
RIGHT,1133.333336,FALSE,,"('Time_Max_Exceeded', 1133.417800000018)",0,RIGHT,572.9291,45:29.7,45:30.4,22,s4,ResponseInhibition
RIGHT,1483.333336,TRUE,100.0000002,"('Time_Max_Exceeded', 1483.6975000000052)",0,Time_Max_Exceeded,1500.0513,45:31.9,45:33.4,23,s4,ResponseInhibition
LEFT,1283.333336,TRUE,283.3333339,"('Time_Max_Exceeded', 1283.3883999999784)",0,Time_Max_Exceeded,1500.054234,45:34.7,45:36.2,24,s4,ResponseInhibition
LEFT,516.6666677,FALSE,,"('Time_Max_Exceeded', 0.4749999999944521)",0,LEFT,506.2743,45:36.8,45:37.5,25,s4,ResponseInhibition
LEFT,950.0000019,TRUE,133.3333336,"('Time_Max_Exceeded', 950.1976999999897)",0,Time_Max_Exceeded,1500.058734,45:38.4,45:39.9,26,s4,ResponseInhibition
RIGHT,683.3333347,FALSE,,"('Time_Max_Exceeded', 683.522000000039)",0,RIGHT,521.8316,45:40.6,45:41.4,27,s4,ResponseInhibition
RIGHT,883.3333351,FALSE,,"('Time_Max_Exceeded', 883.6708000000044)",0,RIGHT,385.0087,45:42.3,45:42.9,28,s4,ResponseInhibition
LEFT,1383.333336,FALSE,,"('Time_Max_Exceeded', 1383.547799999974)",0,LEFT,408.7638,45:44.2,45:44.9,29,s4,ResponseInhibition
RIGHT,850.0000017,FALSE,,"('Time_Max_Exceeded', 850.3106000000002)",0,RIGHT,370.1647,45:45.7,45:46.3,30,s4,ResponseInhibition
RIGHT,750.0000015,TRUE,300.0000006,"('Time_Max_Exceeded', 750.3401999999824)",0,RIGHT,503.7455006,45:47.1,45:47.8,31,s4,ResponseInhibition
RIGHT,600.0000012,FALSE,,"('Time_Max_Exceeded', 600.2080000000092)",0,RIGHT,493.113,45:48.4,45:49.1,32,s4,ResponseInhibition
LEFT,1466.66667,FALSE,,"('Time_Max_Exceeded', 0.06879999995135222)",0,LEFT,888.1041,45:50.6,45:51.7,33,s4,ResponseInhibition
RIGHT,1166.666669,FALSE,,"('Time_Max_Exceeded', 1166.9309999999768)",0,RIGHT,366.6801,45:52.8,45:53.4,34,s4,ResponseInhibition
RIGHT,716.6666681,FALSE,,"('Time_Max_Exceeded', 716.9240999999715)",0,RIGHT,529.6363,45:54.1,45:54.9,35,s4,ResponseInhibition
LEFT,666.666668,FALSE,,"('Time_Max_Exceeded', 666.9496000000095)",0,LEFT,538.2969,45:55.6,45:56.3,36,s4,ResponseInhibition
LEFT,983.3333353,FALSE,,"('Time_Max_Exceeded', 985.9814000000142)",0,LEFT,514.894,45:57.3,45:58.0,37,s4,ResponseInhibition
LEFT,883.3333351,FALSE,,"('Time_Max_Exceeded', 0.06180000002586894)",0,LEFT,480.8744,45:58.9,45:59.6,38,s4,ResponseInhibition
RIGHT,1150.000002,TRUE,133.3333336,"('Time_Max_Exceeded', 1150.3308999999717)",0,Time_Max_Exceeded,1500.110234,46:00.8,46:02.3,39,s4,ResponseInhibition
LEFT,683.3333347,FALSE,,"('Time_Max_Exceeded', 0.5558999999948355)",0,LEFT,403.8729,46:03.0,46:03.6,40,s4,ResponseInhibition
LEFT,1300.000003,FALSE,,"('Time_Max_Exceeded', 1300.2643000000376)",0,LEFT,470.4433,46:04.9,46:05.6,41,s4,ResponseInhibition
RIGHT,1066.666669,TRUE,233.3333338,"('Time_Max_Exceeded', 0.5091000000447821)",0,RIGHT,489.7812338,46:06.7,46:07.4,42,s4,ResponseInhibition
LEFT,1050.000002,FALSE,,"('Time_Max_Exceeded', 1050.2594000000158)",0,LEFT,461.0939,46:08.4,46:09.1,43,s4,ResponseInhibition
RIGHT,1116.666669,FALSE,,"('Time_Max_Exceeded', 0.509299999976065)",0,RIGHT,617.8647,46:10.2,46:11.0,44,s4,ResponseInhibition
LEFT,716.6666681,FALSE,,"('Time_Max_Exceeded', 716.9289999999933)",0,LEFT,541.4116,46:11.8,46:12.5,45,s4,ResponseInhibition
RIGHT,1350.000003,FALSE,,"('Time_Max_Exceeded', 1351.2805999999955)",0,RIGHT,447.1072,46:13.9,46:14.5,46,s4,ResponseInhibition
LEFT,1316.666669,FALSE,,"('Time_Max_Exceeded', 1317.0764999999847)",0,LEFT,396.2239,46:15.9,46:16.5,47,s4,ResponseInhibition
RIGHT,1300.000003,FALSE,,"('Time_Max_Exceeded', 1300.2525999999648)",0,RIGHT,566.3823,46:17.8,46:18.6,48,s4,ResponseInhibition
LEFT,1200.000002,TRUE,33.3333334,"('Time_Max_Exceeded', 0.691899999992529)",0,Time_Max_Exceeded,1500.055333,46:19.8,46:21.3,49,s4,ResponseInhibition
RIGHT,783.3333349,FALSE,,"('Time_Max_Exceeded', 0.27769999996962724)",0,RIGHT,356.0846,46:22.1,46:22.6,50,s4,ResponseInhibition
LEFT,900.0000018,FALSE,,"('Time_Max_Exceeded', 900.3349000000185)",0,LEFT,401.1867,46:23.6,46:24.2,51,s4,ResponseInhibition
RIGHT,616.6666679,FALSE,,"('Time_Max_Exceeded', 0.2734999999915999)",0,RIGHT,363.5734,46:24.8,46:25.4,52,s4,ResponseInhibition
RIGHT,1233.333336,TRUE,116.6666669,"('Time_Max_Exceeded', 1233.9059999999904)",0,Time_Max_Exceeded,1500.060867,46:26.6,46:28.1,53,s4,ResponseInhibition
RIGHT,1416.66667,FALSE,,"('Time_Max_Exceeded', 1416.7551000000458)",0,RIGHT,536.5016,46:29.5,46:30.3,54,s4,ResponseInhibition
RIGHT,666.666668,TRUE,83.3333335,"('Time_Max_Exceeded', 666.9712000000345)",0,Time_Max_Exceeded,1500.051134,46:31.0,46:32.5,55,s4,ResponseInhibition
RIGHT,500.000001,FALSE,,"('Time_Max_Exceeded', 500.05679999998165)",0,RIGHT,538.177,46:33.0,46:33.7,56,s4,ResponseInhibition
RIGHT,1333.333336,FALSE,,"('Time_Max_Exceeded', 1333.7015000000179)",0,RIGHT,360.3226,46:35.1,46:35.6,57,s4,ResponseInhibition
LEFT,1016.666669,FALSE,,"('Time_Max_Exceeded', 1016.9963999999823)",0,LEFT,420.6607,46:36.7,46:37.3,58,s4,ResponseInhibition
LEFT,833.333335,FALSE,,"('Time_Max_Exceeded', 833.6456000000112)",0,LEFT,453.0975,46:38.1,46:38.8,59,s4,ResponseInhibition
LEFT,1416.66667,FALSE,,"('Time_Max_Exceeded', 1416.9001999999864)",0,LEFT,542.2624,46:40.2,46:41.0,60,s4,ResponseInhibition
LEFT,500.000001,FALSE,,"('Time_Max_Exceeded', 500.2554999999802)",0,LEFT,488.6708,46:41.5,46:42.2,61,s4,ResponseInhibition
LEFT,1133.333336,FALSE,,"('Time_Max_Exceeded', 1133.7546999999972)",0,LEFT,362.9685,46:43.3,46:43.9,62,s4,ResponseInhibition
LEFT,766.6666682,FALSE,,"('Time_Max_Exceeded', 767.022499999996)",0,LEFT,393.1617,46:44.7,46:45.3,63,s4,ResponseInhibition
LEFT,1250.000003,FALSE,,"('Time_Max_Exceeded', 0.26179999997566483)",0,LEFT,374.5297,46:46.5,46:47.1,64,s4,ResponseInhibition
LEFT,966.6666686,FALSE,,"('Time_Max_Exceeded', 967.0133000000192)",0,LEFT,413.5781,46:48.1,46:48.7,65,s4,ResponseInhibition
RIGHT,1316.666669,TRUE,166.666667,"('Time_Max_Exceeded', 1316.940700000032)",0,Time_Max_Exceeded,1500.107867,46:50.1,46:51.6,66,s4,ResponseInhibition
RIGHT,700.0000014,FALSE,,"('Time_Max_Exceeded', 0.18499999998766725)",0,RIGHT,515.0829,46:52.3,46:53.0,67,s4,ResponseInhibition
LEFT,616.6666679,TRUE,233.3333338,"('Time_Max_Exceeded', 617.1199000000342)",0,LEFT,486.2629338,46:53.6,46:54.3,68,s4,ResponseInhibition
RIGHT,1100.000002,FALSE,,"('Time_Max_Exceeded', 1100.2600000000484)",0,RIGHT,500.09,46:55.4,46:56.1,69,s4,ResponseInhibition
LEFT,583.3333345,FALSE,,"('Time_Max_Exceeded', 583.8696999999797)",0,LEFT,559.1784,46:56.7,46:57.5,70,s4,ResponseInhibition
RIGHT,1050.000002,FALSE,,"('Time_Max_Exceeded', 1050.3868999999781)",0,RIGHT,555.8406,46:58.6,46:59.3,71,s4,ResponseInhibition
RIGHT,900.0000018,TRUE,50.0000001,"('Time_Max_Exceeded', 900.3384999999753)",0,Time_Max_Exceeded,1500.3109,47:00.3,47:01.8,72,s4,ResponseInhibition
RIGHT,1016.666669,FALSE,,"('Time_Max_Exceeded', 0.5080000000248219)",0,RIGHT,545.4586,47:02.8,47:03.5,73,s4,ResponseInhibition
RIGHT,766.6666682,FALSE,,"('Time_Max_Exceeded', 767.0059000000151)",0,RIGHT,412.1316,47:04.3,47:04.9,74,s4,ResponseInhibition
LEFT,1233.333336,FALSE,,"('Time_Max_Exceeded', 1234.0882000000306)",0,LEFT,478.0223,47:06.2,47:06.9,75,s4,ResponseInhibition
LEFT,1333.333336,FALSE,,"('Time_Max_Exceeded', 1333.7096999999858)",0,LEFT,506.1585,47:08.2,47:08.9,76,s4,ResponseInhibition
LEFT,533.3333344,TRUE,200.0000004,"('Time_Max_Exceeded', 0.19979999996166953)",0,Time_Max_Exceeded,1500.0544,47:09.5,47:11.0,77,s4,ResponseInhibition
RIGHT,1433.333336,FALSE,,"('Time_Max_Exceeded', 0.10350000002290471)",0,RIGHT,457.3829,47:12.4,47:13.1,78,s4,ResponseInhibition
LEFT,783.3333349,TRUE,316.6666673,"('Time_Max_Exceeded', 0.1622999999995045)",0,LEFT,406.5191673,47:13.9,47:14.5,79,s4,ResponseInhibition
LEFT,1100.000002,FALSE,,"('Time_Max_Exceeded', 0.3123999999843363)",0,LEFT,487.0614,47:15.6,47:16.3,80,s4,ResponseInhibition
LEFT,866.6666684,TRUE,300.0000006,"('Time_Max_Exceeded', 867.0194000000038)",0,Time_Max_Exceeded,1500.052101,47:17.2,47:18.7,81,s4,ResponseInhibition
LEFT,600.0000012,FALSE,,"('Time_Max_Exceeded', 0.09800000003679088)",0,LEFT,502.1895,47:19.3,47:20.0,82,s4,ResponseInhibition
RIGHT,1400.000003,TRUE,66.6666668,"('Time_Max_Exceeded', 1402.5219000000106)",0,Time_Max_Exceeded,1500.152967,47:21.4,47:22.9,83,s4,ResponseInhibition
LEFT,850.0000017,FALSE,,"('Time_Max_Exceeded', 0.12099999997872146)",0,LEFT,535.4448,47:23.8,47:24.5,84,s4,ResponseInhibition
RIGHT,1466.66667,FALSE,,"('Time_Max_Exceeded', 1466.9407000000092)",0,RIGHT,470.1626,47:26.0,47:26.7,85,s4,ResponseInhibition
LEFT,1166.666669,FALSE,,"('Time_Max_Exceeded', 0.5462999999963358)",0,LEFT,655.7874,47:27.9,47:28.7,86,s4,ResponseInhibition
LEFT,1216.666669,FALSE,,"('Time_Max_Exceeded', 1217.7369999999996)",0,LEFT,511.5369,47:30.0,47:30.7,87,s4,ResponseInhibition
RIGHT,650.0000013,FALSE,,"('Time_Max_Exceeded', 650.25380000003)",0,RIGHT,513.8561,47:31.3,47:32.1,88,s4,ResponseInhibition
RIGHT,866.6666684,FALSE,,"('Time_Max_Exceeded', 867.1567999999752)",0,RIGHT,495.9559,47:32.9,47:33.6,89,s4,ResponseInhibition
RIGHT,950.0000019,FALSE,,"('Time_Max_Exceeded', 950.2564000000007)",0,RIGHT,539.0468,47:34.6,47:35.4,90,s4,ResponseInhibition
LEFT,1500.000003,FALSE,,"('Time_Max_Exceeded', 0.1686999999606087)",0,LEFT,496.2134,47:36.9,47:37.6,91,s4,ResponseInhibition
LEFT,1150.000002,FALSE,,"('Time_Max_Exceeded', 1150.2926999999659)",0,LEFT,508.7175,47:38.7,47:39.5,92,s4,ResponseInhibition
LEFT,800.0000016,FALSE,,"('Time_Max_Exceeded', 800.1712000000225)",0,LEFT,512.9571,47:40.3,47:41.0,93,s4,ResponseInhibition
LEFT,1033.333335,TRUE,250.0000005,"('Time_Max_Exceeded', 1033.8388000000123)",0,Time_Max_Exceeded,1500.052101,47:42.0,47:43.5,94,s4,ResponseInhibition
RIGHT,1283.333336,FALSE,,"('Time_Max_Exceeded', 0.39590000000089276)",0,RIGHT,461.8332,47:44.8,47:45.5,95,s4,ResponseInhibition
RIGHT,1250.000003,FALSE,,"('Time_Max_Exceeded', 1250.1596000000177)",0,RIGHT,433.8845,47:46.8,47:47.4,96,s4,ResponseInhibition
RIGHT,1383.333336,FALSE,,"('Time_Max_Exceeded', 1383.8940000000548)",0,RIGHT,455.6699,47:48.8,47:49.5,97,s4,ResponseInhibition
LEFT,1066.666669,FALSE,,"('Time_Max_Exceeded', 1067.980700000021)",0,LEFT,450.7907,47:50.5,47:51.2,98,s4,ResponseInhibition
RIGHT,1500.000003,FALSE,,"('Time_Max_Exceeded', 0.10530000008657225)",0,RIGHT,361.503,47:52.7,47:53.3,99,s4,ResponseInhibition
LEFT,650.0000013,FALSE,,"('Time_Max_Exceeded', 650.532300000009)",0,LEFT,458.2911,47:53.9,47:54.6,100,s4,ResponseInhibition
RIGHT,1300.000003,FALSE,,"('Time_Max_Exceeded', 1300.1666000000114)",0,RIGHT,346.44,47:55.9,47:56.5,101,s4,ResponseInhibition
RIGHT,1233.333336,TRUE,283.3333339,"('Time_Max_Exceeded', 1233.6652999999842)",0,RIGHT,402.8569339,47:57.7,47:58.3,102,s4,ResponseInhibition
LEFT,683.3333347,FALSE,,"('Time_Max_Exceeded', 683.6353999999574)",0,LEFT,502.3607,47:59.1,47:59.8,103,s4,ResponseInhibition
RIGHT,750.0000015,TRUE,250.0000005,"('Time_Max_Exceeded', 0.44049999996786937)",0,Time_Max_Exceeded,1500.0517,48:00.5,48:02.0,104,s4,ResponseInhibition
RIGHT,583.3333345,TRUE,266.6666672,"('Time_Max_Exceeded', 583.394300000009)",0,Time_Max_Exceeded,1500.057667,48:02.6,48:04.1,105,s4,ResponseInhibition
RIGHT,850.0000017,FALSE,,"('Time_Max_Exceeded', 0.45920000002297456)",0,RIGHT,654.1583,48:05.0,48:05.9,106,s4,ResponseInhibition
RIGHT,683.3333347,FALSE,,"('Time_Max_Exceeded', 683.5585000000037)",0,RIGHT,673.4416,48:06.6,48:07.4,107,s4,ResponseInhibition
RIGHT,1050.000002,FALSE,,"('Time_Max_Exceeded', 1050.363999999945)",0,RIGHT,372.3633,48:08.5,48:09.1,108,s4,ResponseInhibition
RIGHT,933.3333352,FALSE,,"('Time_Max_Exceeded', 0.1068000000259417)",0,RIGHT,444.0604,48:10.0,48:10.7,109,s4,ResponseInhibition
RIGHT,800.0000016,FALSE,,"('Time_Max_Exceeded', 800.329099999999)",0,RIGHT,488.0373,48:11.5,48:12.2,110,s4,ResponseInhibition
RIGHT,1500.000003,FALSE,,"('Time_Max_Exceeded', 1500.3343999999288)",0,RIGHT,453.1488,48:13.7,48:14.4,111,s4,ResponseInhibition
LEFT,716.6666681,FALSE,,"('Time_Max_Exceeded', 717.0611000000235)",0,LEFT,594.0561,48:15.1,48:15.9,112,s4,ResponseInhibition
LEFT,1350.000003,TRUE,300.0000006,"('Time_Max_Exceeded', 1350.295600000095)",0,LEFT,416.9404006,48:17.3,48:17.9,113,s4,ResponseInhibition
RIGHT,1316.666669,TRUE,266.6666672,"('Time_Max_Exceeded', 1317.776899999899)",0,Time_Max_Exceeded,1500.049767,48:19.2,48:20.7,114,s4,ResponseInhibition
RIGHT,566.6666678,FALSE,,"('Time_Max_Exceeded', 566.7502000000013)",0,RIGHT,627.7372,48:21.3,48:22.1,115,s4,ResponseInhibition
LEFT,1133.333336,FALSE,,"('Time_Max_Exceeded', 1133.577100000025)",0,LEFT,545.2173,48:23.3,48:24.0,116,s4,ResponseInhibition
LEFT,1200.000002,TRUE,283.3333339,"('Time_Max_Exceeded', 1200.3090000000611)",0,Time_Max_Exceeded,1500.081434,48:25.2,48:26.7,117,s4,ResponseInhibition
RIGHT,666.666668,TRUE,316.6666673,"('Time_Max_Exceeded', 0.6417999999257518)",0,Time_Max_Exceeded,1500.058467,48:27.4,48:28.9,118,s4,ResponseInhibition
LEFT,1150.000002,FALSE,,"('Time_Max_Exceeded', 0.5634000000327433)",0,LEFT,609.5562,48:30.1,48:30.9,119,s4,ResponseInhibition
LEFT,666.666668,FALSE,,"('Time_Max_Exceeded', 666.0082000000784)",0,LEFT,766.5064,48:31.6,48:32.6,120,s4,ResponseInhibition
RIGHT,766.6666682,FALSE,,"('Time_Max_Exceeded', 769.7236000000203)",0,RIGHT,610.5871,48:33.3,48:34.2,121,s4,ResponseInhibition
RIGHT,1333.333336,FALSE,,"('Time_Max_Exceeded', 1333.6632000000463)",0,RIGHT,633.7708,48:35.5,48:36.3,122,s4,ResponseInhibition
RIGHT,950.0000019,FALSE,,"('Time_Max_Exceeded', 950.2668999999742)",0,RIGHT,480.3336,48:37.3,48:38.0,123,s4,ResponseInhibition
LEFT,600.0000012,FALSE,,"('Time_Max_Exceeded', 603.2330000000456)",0,LEFT,426.114,48:38.6,48:39.2,124,s4,ResponseInhibition
RIGHT,833.333335,TRUE,316.6666673,"('Time_Max_Exceeded', 833.6590000000115)",0,RIGHT,369.3070673,48:40.1,48:40.7,125,s4,ResponseInhibition
RIGHT,500.000001,FALSE,,"('Time_Max_Exceeded', 500.2958000000035)",0,RIGHT,532.1251,48:41.2,48:41.9,126,s4,ResponseInhibition
RIGHT,1216.666669,FALSE,,"('Time_Max_Exceeded', 1218.994299999963)",0,RIGHT,398.987,48:43.2,48:43.8,127,s4,ResponseInhibition
LEFT,533.3333344,TRUE,316.6666673,"('Time_Max_Exceeded', 533.580200000074)",0,Time_Max_Exceeded,1500.054967,48:44.3,48:45.8,128,s4,ResponseInhibition
RIGHT,650.0000013,FALSE,,"('Time_Max_Exceeded', 650.0935000000254)",0,RIGHT,457.2734,48:46.5,48:47.1,129,s4,ResponseInhibition
RIGHT,1100.000002,FALSE,,"('Time_Max_Exceeded', 0.12859999992542726)",0,RIGHT,434.445,48:48.3,48:48.9,130,s4,ResponseInhibition
RIGHT,966.6666686,FALSE,,"('Time_Max_Exceeded', 966.8374999999969)",0,RIGHT,674.1075,48:49.9,48:50.8,131,s4,ResponseInhibition
RIGHT,1483.333336,TRUE,316.6666673,"('Time_Max_Exceeded', 1483.5864000000356)",0,RIGHT,449.0678673,48:52.3,48:52.9,132,s4,ResponseInhibition
RIGHT,1016.666669,FALSE,,"('Time_Max_Exceeded', 1016.9242999999142)",0,RIGHT,606.5183,48:54.0,48:54.8,133,s4,ResponseInhibition
LEFT,1383.333336,FALSE,,"('Time_Max_Exceeded', 1383.6956999999757)",0,LEFT,685.9528,48:56.2,48:57.1,134,s4,ResponseInhibition
RIGHT,1283.333336,FALSE,,"('Time_Max_Exceeded', 1284.7752999999784)",0,RIGHT,498.7697,48:58.4,48:59.1,135,s4,ResponseInhibition
LEFT,1283.333336,TRUE,316.6666673,"('Time_Max_Exceeded', 1285.0331999999298)",0,LEFT,436.7512673,49:00.4,49:01.0,136,s4,ResponseInhibition
LEFT,983.3333353,FALSE,,"('Time_Max_Exceeded', 983.524799999941)",0,LEFT,607.5922,49:02.0,49:02.8,137,s4,ResponseInhibition
LEFT,1416.66667,FALSE,,"('Time_Max_Exceeded', 1419.3894999999657)",0,LEFT,703.3076,49:04.3,49:05.2,138,s4,ResponseInhibition
LEFT,1100.000002,FALSE,,"('Time_Max_Exceeded', 1100.2576000000772)",0,LEFT,737.5625,49:06.3,49:07.2,139,s4,ResponseInhibition
RIGHT,1150.000002,TRUE,300.0000006,"('Time_Max_Exceeded', 1150.3377000000228)",0,RIGHT,496.0609006,49:08.4,49:09.1,140,s4,ResponseInhibition
LEFT,866.6666684,TRUE,283.3333339,"('Time_Max_Exceeded', 866.9688999999607)",0,Time_Max_Exceeded,1500.060034,49:10.0,49:11.5,141,s4,ResponseInhibition
LEFT,850.0000017,FALSE,,"('Time_Max_Exceeded', 0.05069999997431296)",0,LEFT,592.0834,49:12.4,49:13.2,142,s4,ResponseInhibition
RIGHT,700.0000014,FALSE,,"('Time_Max_Exceeded', 700.3092000001061)",0,RIGHT,635.8052,49:13.9,49:14.7,143,s4,ResponseInhibition
RIGHT,883.3333351,FALSE,,"('Time_Max_Exceeded', 883.6729000000787)",0,RIGHT,851.5857,49:15.6,49:16.7,144,s4,ResponseInhibition
LEFT,1300.000003,FALSE,,"('Time_Max_Exceeded', 1300.344500000051)",0,LEFT,639.3507,49:18.0,49:18.8,145,s4,ResponseInhibition
LEFT,1216.666669,FALSE,,"('Time_Max_Exceeded', 1216.9955999999047)",0,LEFT,616.9829,49:20.1,49:20.9,146,s4,ResponseInhibition
LEFT,1466.66667,FALSE,,"('Time_Max_Exceeded', 0.5581000000347558)",0,LEFT,733.1152,49:22.4,49:23.3,147,s4,ResponseInhibition
RIGHT,900.0000018,TRUE,300.0000006,"('Time_Max_Exceeded', 900.3030999999737)",0,Time_Max_Exceeded,1500.048801,49:24.2,49:25.7,148,s4,ResponseInhibition
RIGHT,1466.66667,FALSE,,"('Time_Max_Exceeded', 0.6433999999444495)",0,RIGHT,716.5847,49:27.2,49:28.1,149,s4,ResponseInhibition
LEFT,750.0000015,FALSE,,"('Time_Max_Exceeded', 750.4373000000442)",0,LEFT,688.5549,49:28.9,49:29.8,150,s4,ResponseInhibition
LEFT,1166.666669,FALSE,,"('Time_Max_Exceeded', 1166.9976000000588)",0,LEFT,518.2656,49:30.9,49:31.7,151,s4,ResponseInhibition
RIGHT,600.0000012,FALSE,,"('Time_Max_Exceeded', 600.2604000000247)",0,RIGHT,638.327,49:32.3,49:33.1,152,s4,ResponseInhibition
LEFT,1333.333336,FALSE,,"('Time_Max_Exceeded', 0.38499999993746314)",0,LEFT,441.9493,49:34.5,49:35.1,153,s4,ResponseInhibition
LEFT,1016.666669,FALSE,,"('Time_Max_Exceeded', 1016.8496000000005)",0,LEFT,647.0504,49:36.2,49:37.0,154,s4,ResponseInhibition
LEFT,1400.000003,FALSE,,"('Time_Max_Exceeded', 0.13660000001891603)",0,LEFT,470.9899,49:38.4,49:39.1,155,s4,ResponseInhibition
LEFT,900.0000018,FALSE,,"('Time_Max_Exceeded', 900.4017999999405)",0,LEFT,645.5987,49:40.0,49:40.9,156,s4,ResponseInhibition
LEFT,1050.000002,FALSE,,"('Time_Max_Exceeded', 0.2014000000372107)",0,LEFT,531.4843,49:41.9,49:42.7,157,s4,ResponseInhibition
RIGHT,1433.333336,FALSE,,"('Time_Max_Exceeded', 1433.499000000097)",0,RIGHT,566.888,49:44.1,49:44.9,158,s4,ResponseInhibition
LEFT,783.3333349,TRUE,316.6666673,"('Time_Max_Exceeded', 0.25219999997716513)",0,Time_Max_Exceeded,1500.101067,49:45.7,49:47.2,159,s4,ResponseInhibition
LEFT,1483.333336,FALSE,,"('Time_Max_Exceeded', 0.44660000003204914)",0,LEFT,597.5297,49:48.7,49:49.5,160,s4,ResponseInhibition
LEFT,966.6666686,FALSE,,"('Time_Max_Exceeded', 966.8363000000681)",0,LEFT,726.2095,49:50.4,49:51.4,161,s4,ResponseInhibition
RIGHT,866.6666684,FALSE,,"('Time_Max_Exceeded', 866.9917000000851)",0,RIGHT,629.8338,49:52.3,49:53.1,162,s4,ResponseInhibition
RIGHT,616.6666679,FALSE,,"('Time_Max_Exceeded', 616.9370000000072)",0,RIGHT,524.4889,49:53.7,49:54.5,163,s4,ResponseInhibition
LEFT,1066.666669,FALSE,,"('Time_Max_Exceeded', 1067.0213999999305)",0,LEFT,424.2001,49:55.5,49:56.2,164,s4,ResponseInhibition
RIGHT,1066.666669,TRUE,316.6666673,"('Time_Max_Exceeded', 1066.9960000000174)",0,RIGHT,416.3313673,49:57.2,49:57.9,165,s4,ResponseInhibition
RIGHT,533.3333344,FALSE,,"('Time_Max_Exceeded', 533.4914000000026)",0,RIGHT,587.9851,49:58.4,49:59.2,166,s4,ResponseInhibition
RIGHT,1033.333335,FALSE,,"('Time_Max_Exceeded', 1033.544699999993)",0,RIGHT,559.3717,50:00.3,50:01.0,167,s4,ResponseInhibition
LEFT,1433.333336,TRUE,316.6666673,"('Time_Max_Exceeded', 1434.9114999999983)",0,Time_Max_Exceeded,1500.059567,50:02.5,50:04.0,168,s4,ResponseInhibition
LEFT,1233.333336,FALSE,,"('Time_Max_Exceeded', 1233.3838000000696)",0,LEFT,521.7512,50:05.2,50:06.0,169,s4,ResponseInhibition
LEFT,650.0000013,FALSE,,"('Time_Max_Exceeded', 650.4095000000234)",0,LEFT,628.5129,50:06.6,50:07.5,170,s4,ResponseInhibition
LEFT,700.0000014,TRUE,316.6666673,"('Time_Max_Exceeded', 0.25649999997767736)",0,LEFT,551.8147673,50:08.2,50:08.9,171,s4,ResponseInhibition
LEFT,1500.000003,FALSE,,"('Time_Max_Exceeded', 1500.9803000000375)",0,LEFT,705.5684,50:10.4,50:11.4,172,s4,ResponseInhibition
LEFT,1316.666669,FALSE,,"('Time_Max_Exceeded', 1317.6613000000543)",0,LEFT,646.5401,50:12.7,50:13.5,173,s4,ResponseInhibition
LEFT,583.3333345,FALSE,,"('Time_Max_Exceeded', 583.7159999999812)",0,LEFT,960.0321,50:14.1,50:15.3,174,s4,ResponseInhibition
RIGHT,716.6666681,FALSE,,"('Time_Max_Exceeded', 716.9883999999911)",0,RIGHT,653.0921,50:16.0,50:16.9,175,s4,ResponseInhibition
LEFT,1116.666669,TRUE,316.6666673,"('Time_Max_Exceeded', 1116.989799999942)",0,LEFT,450.7680673,50:18.0,50:18.7,176,s4,ResponseInhibition
LEFT,883.3333351,FALSE,,"('Time_Max_Exceeded', 883.594300000027)",0,LEFT,574.4589,50:19.6,50:20.4,177,s4,ResponseInhibition
LEFT,800.0000016,FALSE,,"('Time_Max_Exceeded', 0.08270000000720756)",0,LEFT,643.0963,50:21.2,50:22.0,178,s4,ResponseInhibition
RIGHT,1133.333336,FALSE,,"('Time_Max_Exceeded', 1133.6922000000413)",0,RIGHT,584.405,50:23.2,50:24.0,179,s4,ResponseInhibition
RIGHT,1400.000003,TRUE,300.0000006,"('Time_Max_Exceeded', 1400.3526000000193)",0,RIGHT,494.6304006,50:25.4,50:26.1,180,s4,ResponseInhibition
RIGHT,1350.000003,FALSE,,"('Time_Max_Exceeded', 1350.191099999961)",0,RIGHT,628.9169,50:27.5,50:28.3,181,s4,ResponseInhibition
LEFT,950.0000019,TRUE,283.3333339,"('Time_Max_Exceeded', 950.9222000000364)",0,LEFT,520.4706339,50:29.3,50:30.0,182,s4,ResponseInhibition
LEFT,516.6666677,FALSE,,"('Time_Max_Exceeded', 516.9544999999971)",0,LEFT,631.47,50:30.5,50:31.4,183,s4,ResponseInhibition
RIGHT,1383.333336,FALSE,,"('Time_Max_Exceeded', 1383.6632999999665)",0,RIGHT,587.4604,50:32.8,50:33.6,184,s4,ResponseInhibition
RIGHT,1200.000002,FALSE,,"('Time_Max_Exceeded', 1201.5810999999985)",0,RIGHT,578.3407,50:34.8,50:35.6,185,s4,ResponseInhibition
RIGHT,1166.666669,FALSE,,"('Time_Max_Exceeded', 1166.991199999984)",0,RIGHT,711.7367,50:36.7,50:37.7,186,s4,ResponseInhibition
LEFT,1250.000003,FALSE,,"('Time_Max_Exceeded', 1250.3209000000197)",0,LEFT,635.2523,50:38.9,50:39.8,187,s4,ResponseInhibition
LEFT,933.3333352,FALSE,,"('Time_Max_Exceeded', 0.1578999999765074)",0,LEFT,650.6124,50:40.7,50:41.6,188,s4,ResponseInhibition
RIGHT,783.3333349,FALSE,,"('Time_Max_Exceeded', 783.6381000000756)",0,RIGHT,677.0419,50:42.4,50:43.3,189,s4,ResponseInhibition
LEFT,833.333335,FALSE,,"('Time_Max_Exceeded', 0.15569999993658712)",0,LEFT,425.4716,50:44.1,50:44.7,190,s4,ResponseInhibition
LEFT,500.000001,FALSE,,"('Time_Max_Exceeded', 500.3103999999894)",0,LEFT,661.5364,50:45.3,50:46.1,191,s4,ResponseInhibition
LEFT,766.6666682,FALSE,,"('Time_Max_Exceeded', 0.14669999995930993)",0,LEFT,444.3307,50:46.9,50:47.6,192,s4,ResponseInhibition
RIGHT,1250.000003,FALSE,,"('Time_Max_Exceeded', 1250.2508000000034)",0,RIGHT,522.5579,50:48.8,50:49.5,193,s4,ResponseInhibition
LEFT,1033.333335,TRUE,283.3333339,"('Time_Max_Exceeded', 1033.594600000015)",0,LEFT,440.0965339,50:50.6,50:51.2,194,s4,ResponseInhibition
RIGHT,516.6666677,TRUE,266.6666672,"('Time_Max_Exceeded', 519.5606999999427)",0,Time_Max_Exceeded,1500.059967,50:51.8,50:53.3,195,s4,ResponseInhibition
LEFT,566.6666678,FALSE,,"('Time_Max_Exceeded', 566.7276000000356)",0,LEFT,657.5853,50:53.9,50:54.7,196,s4,ResponseInhibition
RIGHT,1116.666669,FALSE,,"('Time_Max_Exceeded', 0.3669999999829088)",0,RIGHT,655.5417,50:55.9,50:56.7,197,s4,ResponseInhibition
LEFT,616.6666679,TRUE,283.3333339,"('Time_Max_Exceeded', 617.1637999999575)",0,Time_Max_Exceeded,1500.060434,50:57.4,50:58.9,198,s4,ResponseInhibition
RIGHT,1416.66667,FALSE,,"('Time_Max_Exceeded', 1416.7172000001074)",0,RIGHT,937.9143,51:00.3,51:01.4,199,s4,ResponseInhibition
RIGHT,983.3333353,TRUE,283.3333339,"('Time_Max_Exceeded', 983.6575000000494)",0,Time_Max_Exceeded,1500.051034,51:02.4,51:03.9,200,s4,ResponseInhibition
