Stimulus_Side,ITI,Previous_Response,Previous_RT,Response,RT,Trial_Time_Onset,Trial_Time_End,Trial_Order,Duration,Participant,Task
RIGHT,1050.000002,,,DOWN,890.5078,11:23.6,11:24.7,1,1.826152983,S9,Processing_Speed
RIGHT,1466.66667,,,DOWN,348.8346,11:26.2,11:26.7,2,1.826152983,S9,Processing_Speed
LEFT,916.6666685,,,DOWN,356.2274,11:27.7,11:28.2,3,1.826152983,S9,Processing_Speed
RIGHT,533.3333344,,,DOWN,309.3395,11:28.8,11:29.3,4,1.826152983,S9,Processing_Speed
LEFT,500.000001,,,DOWN,345.0198,11:29.8,11:30.4,5,1.826152983,S9,Processing_Speed
LEFT,733.3333348,,,DOWN,348.7624,11:31.1,11:31.7,6,1.826152983,S9,Processing_Speed
LEFT,566.6666678,,,DOWN,329.0209,11:32.3,11:32.8,7,1.826152983,S9,Processing_Speed
LEFT,1466.66667,,,DOWN,344.7526,11:34.3,11:34.8,8,1.826152983,S9,Processing_Speed
LEFT,1266.666669,,,DOWN,326.1054,11:36.1,11:36.6,9,1.826152983,S9,Processing_Speed
LEFT,1400.000003,,,DOWN,289.6071,11:38.0,11:38.5,10,1.826152983,S9,Processing_Speed
LEFT,533.3333344,,,DOWN,329.8087,11:39.1,11:39.6,11,1.826152983,S9,Processing_Speed
RIGHT,1366.666669,,,DOWN,362.3265,11:41.0,11:41.6,12,1.826152983,S9,Processing_Speed
LEFT,1183.333336,,,DOWN,324.3007,11:42.8,11:43.3,13,1.826152983,S9,Processing_Speed
LEFT,666.666668,,,DOWN,348.3285,11:44.0,11:44.5,14,1.826152983,S9,Processing_Speed
RIGHT,1333.333336,,,DOWN,329.3999,11:45.9,11:46.4,15,1.826152983,S9,Processing_Speed
RIGHT,1433.333336,,,DOWN,401.1491,11:47.9,11:48.5,16,1.826152983,S9,Processing_Speed
RIGHT,633.3333346,,,DOWN,361.9033,11:49.1,11:49.7,17,1.826152983,S9,Processing_Speed
RIGHT,500.000001,,,DOWN,376.2839,11:50.2,11:50.8,18,1.826152983,S9,Processing_Speed
LEFT,983.3333353,,,DOWN,317.7935,11:51.8,11:52.3,19,1.826152983,S9,Processing_Speed
LEFT,1083.333336,,,DOWN,358.7477,11:53.4,11:54.0,20,1.826152983,S9,Processing_Speed
RIGHT,883.3333351,,,DOWN,291.9827,11:54.9,11:55.3,21,1.826152983,S9,Processing_Speed
RIGHT,600.0000012,,,DOWN,361.8099,11:56.0,11:56.5,22,1.826152983,S9,Processing_Speed
RIGHT,1183.333336,,,DOWN,337.072,11:57.7,11:58.3,23,1.826152983,S9,Processing_Speed
RIGHT,816.6666683,,,DOWN,484.3073,11:59.1,11:59.8,24,1.826152983,S9,Processing_Speed
RIGHT,1266.666669,,,DOWN,307.0075,12:01.1,12:01.6,25,1.826152983,S9,Processing_Speed
RIGHT,1083.333336,,,DOWN,431.2778,12:02.7,12:03.3,26,1.826152983,S9,Processing_Speed
LEFT,1500.000003,,,DOWN,281.9118,12:04.8,12:05.3,27,1.826152983,S9,Processing_Speed
RIGHT,733.3333348,,,DOWN,373.8097,12:06.1,12:06.6,28,1.826152983,S9,Processing_Speed
RIGHT,983.3333353,,,DOWN,344.5247,12:07.6,12:08.2,29,1.826152983,S9,Processing_Speed
RIGHT,916.6666685,,,DOWN,405.6554,12:09.1,12:09.7,30,1.826152983,S9,Processing_Speed
RIGHT,1150.000002,,,DOWN,360.0658,12:10.9,12:11.5,31,1.826152983,S9,Processing_Speed
RIGHT,700.0000014,,,DOWN,373.5974,12:12.2,12:12.8,32,1.826152983,S9,Processing_Speed
LEFT,883.3333351,,,DOWN,430.9367,12:13.7,12:14.3,33,1.826152983,S9,Processing_Speed
LEFT,1300.000003,,,DOWN,305.3722,12:15.6,12:16.1,34,1.826152983,S9,Processing_Speed
LEFT,633.3333346,,,DOWN,404.243,12:16.8,12:17.4,35,1.826152983,S9,Processing_Speed
LEFT,816.6666683,,,DOWN,418.1006,12:18.2,12:18.8,36,1.826152983,S9,Processing_Speed
RIGHT,950.0000019,,,DOWN,369.0793,12:19.8,12:20.4,37,1.826152983,S9,Processing_Speed
LEFT,950.0000019,,,DOWN,310.3547,12:21.3,12:21.9,38,1.826152983,S9,Processing_Speed
LEFT,1116.666669,,,DOWN,333.2131,12:23.0,12:23.5,39,1.826152983,S9,Processing_Speed
LEFT,1366.666669,,,DOWN,350.1743,12:24.9,12:25.5,40,1.826152983,S9,Processing_Speed
RIGHT,850.0000017,,,DOWN,280.398,12:26.3,12:26.8,41,1.826152983,S9,Processing_Speed
LEFT,1433.333336,,,DOWN,320.4416,12:28.3,12:28.8,42,1.826152983,S9,Processing_Speed
RIGHT,666.666668,,,DOWN,304.0639,12:29.5,12:30.0,43,1.826152983,S9,Processing_Speed
LEFT,1216.666669,,,DOWN,263.6036,12:31.2,12:31.7,44,1.826152983,S9,Processing_Speed
LEFT,850.0000017,,,DOWN,355.3073,12:32.5,12:33.1,45,1.826152983,S9,Processing_Speed
RIGHT,1016.666669,,,DOWN,331.7782,12:34.1,12:34.6,46,1.826152983,S9,Processing_Speed
LEFT,1150.000002,,,DOWN,274.7783,12:35.8,12:36.3,47,1.826152983,S9,Processing_Speed
LEFT,600.0000012,,,DOWN,481.2035,12:36.9,12:37.6,48,1.826152983,S9,Processing_Speed
LEFT,1333.333336,,,DOWN,368.5256,12:38.9,12:39.5,49,1.826152983,S9,Processing_Speed
RIGHT,1300.000003,,,DOWN,375.3834,12:40.8,12:41.4,50,1.826152983,S9,Processing_Speed
RIGHT,1216.666669,,,DOWN,286.6051,12:42.6,12:43.1,51,1.826152983,S9,Processing_Speed
RIGHT,1116.666669,,,DOWN,301.3073,12:44.2,12:44.7,52,1.826152983,S9,Processing_Speed
LEFT,1016.666669,,,DOWN,283.1594,12:45.8,12:46.2,53,1.826152983,S9,Processing_Speed
LEFT,700.0000014,,,DOWN,323.6305,12:47.0,12:47.5,54,1.826152983,S9,Processing_Speed
RIGHT,566.6666678,,,DOWN,306.5083,12:48.1,12:48.6,55,1.826152983,S9,Processing_Speed
RIGHT,1500.000003,,,DOWN,355.1471,12:50.1,12:50.6,56,1.826152983,S9,Processing_Speed
LEFT,783.3333349,,,DOWN,291.0007,12:51.4,12:51.9,57,1.826152983,S9,Processing_Speed
RIGHT,1400.000003,,,DOWN,330.149,12:53.4,12:53.9,58,1.826152983,S9,Processing_Speed
LEFT,1050.000002,,,DOWN,307.1332,12:55.0,12:55.5,59,1.826152983,S9,Processing_Speed
RIGHT,783.3333349,,,DOWN,335.7075,12:56.3,12:56.8,60,1.826152983,S9,Processing_Speed
